RECORDING_SESSION_LABEL,TRIAL_INDEX,Trial_Index_,Image,image_type,response,trial_num,CURRENT_FIX_DURATION,CURRENT_FIX_INDEX,CURRENT_FIX_START,CURRENT_FIX_X,CURRENT_FIX_Y,CURRENT_FIX_IS_RT_END,X,Y
P1,2,1,Uu.png,None,n,0,148,1,30,10.6,-17.2,FALSE,-549.4,-257.2
P1,2,1,Uu.png,None,n,0,188,2,240,1001,515.1,FALSE,441,275.1
P1,2,1,Uu.png,None,n,0,1506,3,450,1025.2,573.4,FALSE,465.2,333.4
P1,2,1,Uu.png,None,n,0,168,4,1974,996.4,524.2,FALSE,436.4,284.2
P1,2,1,Uu.png,None,n,0,324,5,2176,989.7,695.4,FALSE,429.7,455.4
P1,2,1,Uu.png,None,n,0,484,6,2540,961.7,482.4,FALSE,401.7,242.4
P1,2,1,Uu.png,None,n,0,198,7,3084,859.9,1146.4,FALSE,299.9,906.4
P1,2,1,Uu.png,None,n,0,258,8,3350,989,552.1,FALSE,429,312.1
P1,2,1,Uu.png,None,n,0,156,9,3636,969.8,663,FALSE,409.8,423
P1,2,1,Uu.png,None,n,0,216,10,3814,1008.9,721,FALSE,448.9,481
P1,2,1,Uu.png,None,n,0,178,11,4066,962.2,555.2,FALSE,402.2,315.2
P1,2,1,Uu.png,None,n,0,1660,12,4266,922.1,477.1,FALSE,362.1,237.1
P1,2,1,Uu.png,None,n,0,282,13,5948,918.4,537.7,FALSE,358.4,297.7
P1,3,2,Ou.png,Global,b,0,110,1,10,928.6,547.2,FALSE,368.6,307.2
P1,3,2,Ou.png,Global,b,0,728,2,144,979.1,536.7,FALSE,419.1,296.7
P1,3,2,Ou.png,Global,b,0,164,3,898,939.4,434.4,FALSE,379.4,194.4
P1,3,2,Ou.png,Global,b,0,182,4,1080,953.2,393.3,FALSE,393.2,153.3
P1,3,2,Ou.png,Global,b,0,144,5,1300,977.5,621.7,FALSE,417.5,381.7
P1,3,2,Ou.png,Global,b,0,196,6,1466,990.2,667.7,FALSE,430.2,427.7
P1,3,2,Ou.png,Global,b,0,608,7,1700,935.4,423.7,FALSE,375.4,183.7
P1,3,2,Ou.png,Global,b,0,308,8,2324,921.9,459.7,FALSE,361.9,219.7
P1,3,2,Ou.png,Global,b,0,158,9,2652,905.2,513.6,FALSE,345.2,273.6
P1,3,2,Ou.png,Global,b,0,138,10,2836,1017.5,514.8,FALSE,457.5,274.8
P1,4,3,Tt.png,None,n,0,208,1,10,945.1,576.7,FALSE,385.1,336.7
P1,4,3,Tt.png,None,n,0,910,2,242,1010.5,571.9,FALSE,450.5,331.9
P1,4,3,Tt.png,None,n,0,842,3,1178,978.5,426.3,FALSE,418.5,186.3
P1,4,3,Tt.png,None,n,0,360,4,2054,1004.7,559.3,FALSE,444.7,319.3
P1,4,3,Tt.png,None,n,0,250,5,2432,1004.2,509.8,FALSE,444.2,269.8
P1,4,3,Tt.png,None,n,0,254,6,2704,984.6,575,FALSE,424.6,335
P1,5,4,Uo.png,Local,b,0,1318,1,10,1016.4,585.7,FALSE,456.4,345.7
P1,5,4,Uo.png,Local,b,0,150,2,1354,1006,655,FALSE,446,415
P1,5,4,Uo.png,Local,b,0,204,3,1522,999.7,698,FALSE,439.7,458
P1,5,4,Uo.png,Local,b,0,230,4,1776,896.5,1144.6,FALSE,336.5,904.6
P1,5,4,Uo.png,Local,b,0,422,5,2030,817.9,1137,FALSE,257.9,897
P1,5,4,Uo.png,Local,b,0,434,6,2522,1011,499.1,FALSE,451,259.1
P1,5,4,Uo.png,Local,b,0,198,7,2976,991.7,538,FALSE,431.7,298
P1,5,4,Uo.png,Local,b,0,72,8,3192,1029.8,559.7,FALSE,469.8,319.7
P1,6,5,Tt.png,None,n,0,206,1,10,1066.3,615.7,FALSE,506.3,375.7
P1,6,5,Tt.png,None,n,0,1090,2,236,1004.5,596,FALSE,444.5,356
P1,6,5,Tt.png,None,n,0,62,3,1350,983.8,507.1,FALSE,423.8,267.1
P1,6,5,Tt.png,None,n,0,208,4,1430,968.9,450,FALSE,408.9,210
P1,6,5,Tt.png,None,n,0,286,5,1668,989.1,579.8,FALSE,429.1,339.8
P1,6,5,Tt.png,None,n,0,262,6,1980,986.3,478.3,FALSE,426.3,238.3
P1,6,5,Tt.png,None,n,0,182,7,2268,952.2,559.3,FALSE,392.2,319.3
P1,6,5,Tt.png,None,n,0,64,8,2476,1026.4,568.9,FALSE,466.4,328.9
P1,7,6,Ou.png,Global,b,0,784,1,10,1000.4,564.2,FALSE,440.4,324.2
P1,7,6,Ou.png,Global,b,0,818,2,816,965.6,531.1,FALSE,405.6,291.1
P1,7,6,Ou.png,Global,b,0,1240,3,1650,982.8,570.1,FALSE,422.8,330.1
P1,7,6,Ou.png,Global,b,0,290,4,2998,991.2,527.8,FALSE,431.2,287.8
P1,7,6,Ou.png,Global,b,0,240,5,3316,1032.9,622.2,FALSE,472.9,382.2
P1,7,6,Ou.png,Global,b,0,248,6,3576,1059.4,690.3,FALSE,499.4,450.3
P1,7,6,Ou.png,Global,b,0,184,7,3856,985.3,570.6,FALSE,425.3,330.6
P1,7,6,Ou.png,Global,b,0,502,8,4056,991.2,529.6,FALSE,431.2,289.6
P1,7,6,Ou.png,Global,b,0,224,9,4610,833.2,1104.7,FALSE,273.2,864.7
P1,7,6,Ou.png,Global,b,0,170,10,4896,959.5,613.9,FALSE,399.5,373.9
P1,8,7,Ul.png,None,n,0,256,1,10,1048.6,627.5,FALSE,488.6,387.5
P1,8,7,Ul.png,None,n,0,330,2,282,992.2,614.8,FALSE,432.2,374.8
P1,8,7,Ul.png,None,n,0,1124,3,628,1013.1,610.8,FALSE,453.1,370.8
P1,8,7,Ul.png,None,n,0,534,4,1780,1009,629.6,FALSE,449,389.6
P1,8,7,Ul.png,None,n,0,538,5,2550,1018,616,FALSE,458,376
P1,8,7,Ul.png,None,n,0,500,6,3266,1009.8,605.5,FALSE,449.8,365.5
P1,8,7,Ul.png,None,n,0,282,7,3976,1011.4,609.8,FALSE,451.4,369.8
P1,8,7,Ul.png,None,n,0,144,8,4292,840.3,617.6,FALSE,280.3,377.6
P1,8,7,Ul.png,None,n,0,164,9,4460,746.3,613.5,FALSE,186.3,373.5
P1,8,7,Ul.png,None,n,0,272,10,4660,914.7,608.9,FALSE,354.7,368.9
P1,8,7,Ul.png,None,n,0,162,11,4962,1075.2,590.6,FALSE,515.2,350.6
P1,8,7,Ul.png,None,n,0,220,12,5146,1150.7,581.9,FALSE,590.7,341.9
P1,8,7,Ul.png,None,n,0,84,13,5390,1241.6,580.6,FALSE,681.6,340.6
P1,8,7,Ul.png,None,n,0,194,14,5496,1308.3,566.1,FALSE,748.3,326.1
P1,8,7,Ul.png,None,n,0,352,15,5722,1150.2,577.6,FALSE,590.2,337.6
P1,9,8,Ul.png,None,n,0,12,1,10,1202.8,564.9,FALSE,642.8,324.9
P1,9,8,Ul.png,None,n,0,196,2,66,909.2,595.2,FALSE,349.2,355.2
P1,9,8,Ul.png,None,n,0,788,3,292,1020.1,583.2,FALSE,460.1,343.2
P1,9,8,Ul.png,None,n,0,216,4,1102,994,546,FALSE,434,306
P1,9,8,Ul.png,None,n,0,270,5,1350,1015,754.3,FALSE,455,514.3
P1,9,8,Ul.png,None,n,0,746,6,1678,801.9,1110.6,FALSE,241.9,870.6
P1,9,8,Ul.png,None,n,0,346,7,2496,981.9,629,FALSE,421.9,389
P1,9,8,Ul.png,None,n,0,250,8,2864,1041,621.7,FALSE,481,381.7
P1,10,9,Uo.png,Local,b,0,230,1,10,1086,631.4,FALSE,526,391.4
P1,10,9,Uo.png,Local,b,0,638,2,264,1013.7,636.7,FALSE,453.7,396.7
P1,10,9,Uo.png,Local,b,0,222,3,956,865.6,1105.1,FALSE,305.6,865.1
P1,10,9,Uo.png,Local,b,0,294,4,1242,999.4,592.9,FALSE,439.4,352.9
P1,10,9,Uo.png,Local,b,0,96,5,1556,1034.2,616,FALSE,474.2,376
P1,10,9,Uo.png,Local,b,0,920,6,1828,1020.4,579.1,FALSE,460.4,339.1
P1,10,9,Uo.png,Local,b,0,162,7,2768,1051.8,547.2,FALSE,491.8,307.2
P1,10,9,Uo.png,Local,b,0,314,8,2946,1021.3,537.8,FALSE,461.3,297.8
P1,10,9,Uo.png,Local,b,0,98,9,3474,957,592.3,FALSE,397,352.3
P1,10,9,Uo.png,Local,b,0,656,10,3596,1014.9,614.5,FALSE,454.9,374.5
P1,10,9,Uo.png,Local,b,0,106,11,4282,867.8,623.5,FALSE,307.8,383.5
P1,10,9,Uo.png,Local,b,0,176,12,4420,710.4,586.6,FALSE,150.4,346.6
P1,10,9,Uo.png,Local,b,0,204,13,4634,943.8,625.4,FALSE,383.8,385.4
P1,10,9,Uo.png,Local,b,0,240,14,4866,1107.4,601.8,FALSE,547.4,361.8
P1,10,9,Uo.png,Local,b,0,158,15,5132,1219.1,572.5,FALSE,659.1,332.5
P1,10,9,Uo.png,Local,b,0,302,16,5316,1306.1,549.4,FALSE,746.1,309.4
P1,10,9,Uo.png,Local,b,0,190,17,5722,668.7,1112.1,FALSE,108.7,872.1
P1,11,10,Uo.png,Local,b,0,192,1,10,1277.6,608.5,FALSE,717.6,368.5
P1,11,10,Uo.png,Local,b,0,328,2,240,1053.9,620.3,FALSE,493.9,380.3
P1,11,10,Uo.png,Local,b,0,152,3,620,926.8,1131.5,FALSE,366.8,891.5
P1,11,10,Uo.png,Local,b,0,162,4,798,844,1115.4,FALSE,284,875.4
P1,11,10,Uo.png,Local,b,0,48,5,988,988.4,1126.1,FALSE,428.4,886.1
P1,11,10,Uo.png,Local,b,0,132,6,1090,962.7,560.4,FALSE,402.7,320.4
P1,11,10,Uo.png,Local,b,0,626,7,1246,1032.6,581.2,FALSE,472.6,341.2
P1,11,10,Uo.png,Local,b,0,214,8,1902,1038.6,606.5,FALSE,478.6,366.5
P1,11,10,Uo.png,Local,b,0,158,9,2146,975.7,599.6,FALSE,415.7,359.6
P1,11,10,Uo.png,Local,b,0,470,10,2324,1015.8,615.8,FALSE,455.8,375.8
P1,11,10,Uo.png,Local,b,0,40,11,2810,995,635.5,FALSE,435,395.5
P1,11,10,Uo.png,Local,b,0,900,12,2956,1031.5,627.8,FALSE,471.5,387.8
P1,11,10,Uo.png,Local,b,0,216,13,4040,1001.7,591.9,FALSE,441.7,351.9
P1,11,10,Uo.png,Local,b,0,144,14,4288,899.2,631.9,FALSE,339.2,391.9
P1,11,10,Uo.png,Local,b,0,150,15,4486,1271.5,557.7,FALSE,711.5,317.7
P1,11,10,Uo.png,Local,b,0,166,16,4670,1100.3,583.7,FALSE,540.3,343.7
P1,11,10,Uo.png,Local,b,0,188,17,4858,1174.4,606.5,FALSE,614.4,366.5
P1,11,10,Uo.png,Local,b,0,136,18,5094,820.7,611.7,FALSE,260.7,371.7
P1,11,10,Uo.png,Local,b,0,174,19,5254,734.9,596,FALSE,174.9,356
P1,11,10,Uo.png,Local,b,0,180,20,5460,911.1,600.2,FALSE,351.1,360.2
P1,11,10,Uo.png,Local,b,0,166,21,5688,1201.1,578.6,FALSE,641.1,338.6
P1,11,10,Uo.png,Local,b,0,184,22,5880,1299.3,557,FALSE,739.3,317
P1,12,11,Uo.png,Local,b,0,1196,1,10,895.4,408.6,FALSE,335.4,168.6
P1,12,11,Uo.png,Local,b,0,520,2,1336,920.8,429.2,FALSE,360.8,189.2
P1,12,11,Uo.png,Local,b,0,798,3,2060,938.5,482.1,FALSE,378.5,242.1
P1,12,11,Uo.png,Local,b,0,122,4,2878,906.5,402.2,FALSE,346.5,162.2
P1,12,11,Uo.png,Local,b,0,114,5,3042,939.5,716.1,FALSE,379.5,476.1
P1,12,11,Uo.png,Local,b,0,200,6,3212,709.8,1141,FALSE,149.8,901
P1,12,11,Uo.png,Local,b,0,164,7,3438,581,1126.5,FALSE,21,886.5
P1,12,11,Uo.png,Local,b,0,112,8,3620,531.5,1117,FALSE,-28.5,877
P1,12,11,Uo.png,Local,b,0,408,9,3762,617.1,1129.9,FALSE,57.1,889.9
P1,12,11,Uo.png,Local,b,0,158,10,4240,933,733.4,FALSE,373,493.4
P1,12,11,Uo.png,Local,b,0,176,11,4436,889.2,467.2,FALSE,329.2,227.2
P1,12,11,Uo.png,Local,b,0,196,12,4632,831.7,510.7,FALSE,271.7,270.7
P1,13,12,Ht.png,Global,b,0,18,1,10,-40,-268.8,FALSE,-600,-508.8
P1,13,12,Ht.png,Global,b,0,86,2,134,925.1,454.1,FALSE,365.1,214.1
P1,13,12,Ht.png,Global,b,0,252,3,246,854,423.8,FALSE,294,183.8
P1,14,13,Ht.png,Global,b,0,252,1,1638,926,1153.6,FALSE,366,913.6
P1,14,13,Ht.png,Global,b,0,88,2,1960,1035.6,481.8,FALSE,475.6,241.8
P1,14,13,Ht.png,Global,b,0,378,3,2082,1035.8,338.5,FALSE,475.8,98.5
P1,15,14,Ht.png,Global,b,0,162,1,10,968.8,522.6,FALSE,408.8,282.6
P1,15,14,Ht.png,Global,b,0,284,2,200,1013.7,584.5,FALSE,453.7,344.5
P1,15,14,Ht.png,Global,b,0,176,3,546,840.1,1132.2,FALSE,280.1,892.2
P1,15,14,Ht.png,Global,b,0,1082,4,788,1013.7,578.7,FALSE,453.7,338.7
P1,15,14,Ht.png,Global,b,0,174,5,1894,993,647.9,FALSE,433,407.9
P1,15,14,Ht.png,Global,b,0,606,6,2128,859.9,1124,FALSE,299.9,884
P1,15,14,Ht.png,Global,b,0,264,7,2764,732.3,1119.8,FALSE,172.3,879.8
P1,15,14,Ht.png,Global,b,0,144,8,3096,1019.6,691.1,FALSE,459.6,451.1
P1,15,14,Ht.png,Global,b,0,252,9,3274,1019.1,533.1,FALSE,459.1,293.1
P1,15,14,Ht.png,Global,b,0,208,10,3546,1007.6,601.5,FALSE,447.6,361.5
P1,16,15,Ss.png,None,n,0,4,1,22,159.7,269.2,FALSE,-400.3,29.2
P1,16,15,Ss.png,None,n,0,200,2,288,1019,652.9,FALSE,459,412.9
P1,16,15,Ss.png,None,n,0,194,3,606,986.8,610.1,FALSE,426.8,370.1
P1,16,15,Ss.png,None,n,0,1750,4,820,1014.8,596.2,FALSE,454.8,356.2
P1,16,15,Ss.png,None,n,0,136,5,2648,630.9,1114.3,FALSE,70.9,874.3
P1,16,15,Ss.png,None,n,0,90,6,2812,519.5,1090.5,FALSE,-40.5,850.5
P1,16,15,Ss.png,None,n,0,116,7,2968,943.5,748.6,FALSE,383.5,508.6
P1,16,15,Ss.png,None,n,0,666,8,3120,978.2,554.1,FALSE,418.2,314.1
P1,16,15,Ss.png,None,n,0,96,9,3806,1001.8,490.5,FALSE,441.8,250.5
P1,16,15,Ss.png,None,n,0,302,10,3962,593.4,1113.9,FALSE,33.4,873.9
P1,16,15,Ss.png,None,n,0,84,11,4314,1014.4,946.8,FALSE,454.4,706.8
P1,16,15,Ss.png,None,n,0,200,12,4450,1024.6,512.8,FALSE,464.6,272.8
P1,16,15,Ss.png,None,n,0,332,13,4668,1011.1,469.4,FALSE,451.1,229.4
P1,16,15,Ss.png,None,n,0,148,14,5026,984.4,585,FALSE,424.4,345
P1,16,15,Ss.png,None,n,0,154,15,5196,1058.6,596.1,FALSE,498.6,356.1
P1,17,16,Hs.png,Global,b,0,438,1,10,987.3,531.1,FALSE,427.3,291.1
P1,17,16,Hs.png,Global,b,0,26,2,704,923.6,1094.9,FALSE,363.6,854.9
P1,17,16,Hs.png,Global,b,0,920,3,834,922.4,485.8,FALSE,362.4,245.8
P1,17,16,Hs.png,Global,b,0,140,4,1784,867.5,304.9,FALSE,307.5,64.9
P1,17,16,Hs.png,Global,b,0,146,5,1984,956.1,1151,FALSE,396.1,911
P1,17,16,Hs.png,Global,b,0,152,6,2146,941.5,1150.2,FALSE,381.5,910.2
P1,17,16,Hs.png,Global,b,0,58,7,2318,890.1,1158,FALSE,330.1,918
P1,17,16,Hs.png,Global,b,0,468,8,2392,876.1,1154.8,FALSE,316.1,914.8
P1,17,16,Hs.png,Global,b,0,226,9,2888,784.7,1146.3,FALSE,224.7,906.3
P1,17,16,Hs.png,Global,b,0,244,10,3194,1000,333.1,FALSE,440,93.1
P1,17,16,Hs.png,Global,b,0,322,11,3458,989.8,324,FALSE,429.8,84
P1,17,16,Hs.png,Global,b,0,220,12,3812,1022.9,468.3,FALSE,462.9,228.3
P1,18,17,Ol.png,Global,b,0,240,1,10,1098,573.5,FALSE,538,333.5
P1,18,17,Ol.png,Global,b,0,400,2,276,1026.6,553.4,FALSE,466.6,313.4
P1,18,17,Ol.png,Global,b,0,42,3,836,1035.1,1052.3,FALSE,475.1,812.3
P1,18,17,Ol.png,Global,b,0,938,4,908,1032,587.7,FALSE,472,347.7
P1,18,17,Ol.png,Global,b,0,786,5,2038,1015.6,565.5,FALSE,455.6,325.5
P1,18,17,Ol.png,Global,b,0,674,6,2844,969.2,447.6,FALSE,409.2,207.6
P1,18,17,Ol.png,Global,b,0,394,7,3576,903.2,1152.8,FALSE,343.2,912.8
P1,18,17,Ol.png,Global,b,0,442,8,3990,873.4,1144.7,FALSE,313.4,904.7
P1,18,17,Ol.png,Global,b,0,558,9,4498,1065.9,534.8,FALSE,505.9,294.8
P1,19,18,Th.png,Local,b,0,18,1,10,164.3,104.3,FALSE,-395.7,-135.7
P1,19,18,Th.png,Local,b,0,244,2,132,986,587.5,FALSE,426,347.5
P1,19,18,Th.png,Local,b,0,226,3,440,726.9,1122.6,FALSE,166.9,882.6
P1,19,18,Th.png,Local,b,0,374,4,736,1004.8,544.3,FALSE,444.8,304.3
P1,19,18,Th.png,Local,b,0,426,5,1238,990.9,547.2,FALSE,430.9,307.2
P1,19,18,Th.png,Local,b,0,166,6,1822,952.1,457.1,FALSE,392.1,217.1
P1,19,18,Th.png,Local,b,0,732,7,2008,992.3,518.3,FALSE,432.3,278.3
P1,19,18,Th.png,Local,b,0,140,8,2770,988.1,453.3,FALSE,428.1,213.3
P1,19,18,Th.png,Local,b,0,188,9,2970,674,1128.4,FALSE,114,888.4
P1,19,18,Th.png,Local,b,0,144,10,3186,526.4,1107.2,FALSE,-33.6,867.2
P1,19,18,Th.png,Local,b,0,330,11,3364,664,1133.7,FALSE,104,893.7
P1,19,18,Th.png,Local,b,0,294,12,3774,970,468.3,FALSE,410,228.3
P1,19,18,Th.png,Local,b,0,176,13,4094,923.7,539,FALSE,363.7,299
P1,19,18,Th.png,Local,b,0,88,14,4288,951.3,522.3,FALSE,391.3,282.3
P1,20,19,Ou.png,Global,b,0,24,1,10,939.5,564.5,FALSE,379.5,324.5
P1,20,19,Ou.png,Global,b,0,978,2,62,1018.6,549.2,FALSE,458.6,309.2
P1,20,19,Ou.png,Global,b,0,152,3,1068,980.4,455.8,FALSE,420.4,215.8
P1,20,19,Ou.png,Global,b,0,354,4,1238,970.7,404.3,FALSE,410.7,164.3
P1,20,19,Ou.png,Global,b,0,574,5,1622,935.5,490,FALSE,375.5,250
P1,20,19,Ou.png,Global,b,0,142,6,2260,973.9,1134.2,FALSE,413.9,894.2
P1,20,19,Ou.png,Global,b,0,150,7,2424,896.9,1154.6,FALSE,336.9,914.6
P1,20,19,Ou.png,Global,b,0,152,8,2592,948.6,1152,FALSE,388.6,912
P1,20,19,Ou.png,Global,b,0,254,9,2814,921.8,331.2,FALSE,361.8,91.2
P1,20,19,Ou.png,Global,b,0,302,10,3088,959.2,278.9,FALSE,399.2,38.9
P1,20,19,Ou.png,Global,b,0,150,11,3418,949.7,421.9,FALSE,389.7,181.9
P1,20,19,Ou.png,Global,b,0,150,12,3588,1018.4,467.6,FALSE,458.4,227.6
P1,21,20,Ts.png,None,n,0,702,1,10,968.7,543.3,FALSE,408.7,303.3
P1,21,20,Ts.png,None,n,0,190,2,736,925.2,448.6,FALSE,365.2,208.6
P1,21,20,Ts.png,None,n,0,218,3,1006,595.9,1120.5,FALSE,35.9,880.5
P1,21,20,Ts.png,None,n,0,130,4,1240,552.3,1116.6,FALSE,-7.7,876.6
P1,21,20,Ts.png,None,n,0,178,5,1396,657.6,1136.9,FALSE,97.6,896.9
P1,21,20,Ts.png,None,n,0,196,6,1642,980.5,489.1,FALSE,420.5,249.1
P1,21,20,Ts.png,None,n,0,862,7,1868,956.4,402,FALSE,396.4,162
P1,21,20,Ts.png,None,n,0,324,8,2762,1011.1,552,FALSE,451.1,312
P1,22,21,Lo.png,Local,b,0,18,1,10,-122.8,-346.8,FALSE,-682.8,-586.8
P1,22,21,Lo.png,Local,b,0,128,2,134,887.7,411.2,FALSE,327.7,171.2
P1,22,21,Lo.png,Local,b,0,1238,3,280,886.7,431.3,FALSE,326.7,191.3
P1,22,21,Lo.png,Local,b,0,734,4,1680,853.1,380.6,FALSE,293.1,140.6
P1,22,21,Lo.png,Local,b,0,96,5,2650,830,333.3,FALSE,270,93.3
P1,22,21,Lo.png,Local,b,0,742,6,2764,829.4,330.2,FALSE,269.4,90.2
P1,22,21,Lo.png,Local,b,0,626,7,3636,840.7,304.4,FALSE,280.7,64.4
P1,22,21,Lo.png,Local,b,0,102,8,4298,628.6,241.9,FALSE,68.6,1.9
P1,22,21,Lo.png,Local,b,0,166,9,4446,480.7,195.8,FALSE,-79.3,-44.2
P1,22,21,Lo.png,Local,b,0,130,10,4842,1050.4,313.4,FALSE,490.4,73.4
P1,22,21,Lo.png,Local,b,0,114,11,4994,1114.6,293.9,FALSE,554.6,53.9
P1,22,21,Lo.png,Local,b,0,144,12,5138,996.1,318.6,FALSE,436.1,78.6
P1,23,22,Lo.png,Local,b,0,76,1,3652,810.4,242.5,FALSE,250.4,2.5
P1,23,22,Lo.png,Local,b,0,482,2,3754,849.7,325.8,FALSE,289.7,85.8
P1,23,22,Lo.png,Local,b,0,184,3,4278,582.7,216.4,FALSE,22.7,-23.6
P1,23,22,Lo.png,Local,b,0,176,4,4504,953,300.5,FALSE,393,60.5
P1,23,22,Lo.png,Local,b,0,226,5,4704,1052.7,312.4,FALSE,492.7,72.4
P1,23,22,Lo.png,Local,b,0,128,6,4958,926.6,311.2,FALSE,366.6,71.2
P1,23,22,Lo.png,Local,b,0,40,7,5286,542.1,210.4,FALSE,-17.9,-29.6
P1,23,22,Lo.png,Local,b,0,102,8,5354,520.2,279.3,FALSE,-39.8,39.3
P1,24,23,Lo.png,Local,b,0,142,1,66,1112.1,715.4,FALSE,552.1,475.4
P1,24,23,Lo.png,Local,b,0,456,2,242,1009.4,608.8,FALSE,449.4,368.8
P1,24,23,Lo.png,Local,b,0,256,3,906,1061.1,474.8,FALSE,501.1,234.8
P1,24,23,Lo.png,Local,b,0,1030,4,1194,1019.6,593,FALSE,459.6,353
P1,24,23,Lo.png,Local,b,0,510,5,2480,1001.9,627.6,FALSE,441.9,387.6
P1,24,23,Lo.png,Local,b,0,190,6,3164,1023,555.5,FALSE,463,315.5
P1,24,23,Lo.png,Local,b,0,428,7,3374,1018.4,593.9,FALSE,458.4,353.9
P1,24,23,Lo.png,Local,b,0,454,8,3828,982.3,600.1,FALSE,422.3,360.1
P1,24,23,Lo.png,Local,b,0,136,9,4320,738.7,601.8,FALSE,178.7,361.8
P1,24,23,Lo.png,Local,b,0,200,10,4506,1180.8,625.9,FALSE,620.8,385.9
P1,24,23,Lo.png,Local,b,0,550,11,4732,1056,626.3,FALSE,496,386.3
P1,24,23,Lo.png,Local,b,0,352,12,5324,803.6,619,FALSE,243.6,379
P1,24,23,Lo.png,Local,b,0,174,13,5706,1025.7,627.1,FALSE,465.7,387.1
P1,24,23,Lo.png,Local,b,0,152,14,5912,1254.4,609.1,FALSE,694.4,369.1
P1,25,24,Lo.png,Local,b,0,316,1,10,1034.3,623.7,FALSE,474.3,383.7
P1,25,24,Lo.png,Local,b,0,188,2,392,654.1,1068.3,FALSE,94.1,828.3
P1,25,24,Lo.png,Local,b,0,78,3,882,1015.6,532.7,FALSE,455.6,292.7
P1,25,24,Lo.png,Local,b,0,714,4,980,983.7,603.2,FALSE,423.7,363.2
P1,25,24,Lo.png,Local,b,0,154,5,1716,942.2,571.3,FALSE,382.2,331.3
P1,25,24,Lo.png,Local,b,0,270,6,1900,961.3,723.8,FALSE,401.3,483.8
P1,25,24,Lo.png,Local,b,0,558,7,2212,784.9,1084.6,FALSE,224.9,844.6
P1,25,24,Lo.png,Local,b,0,286,8,2826,917,704.6,FALSE,357,464.6
P1,25,24,Lo.png,Local,b,0,264,9,3146,923.7,544.2,FALSE,363.7,304.2
P1,25,24,Lo.png,Local,b,0,314,10,3434,1021.4,606.7,FALSE,461.4,366.7
P1,26,25,Ht.png,Global,b,0,18,1,10,238.4,380.3,FALSE,-321.6,140.3
P1,26,25,Ht.png,Global,b,0,2428,2,132,1011.3,643.6,FALSE,451.3,403.6
P1,26,25,Ht.png,Global,b,0,476,3,2576,1009,611.5,FALSE,449,371.5
P1,26,25,Ht.png,Global,b,0,184,4,3070,981,616.3,FALSE,421,376.3
P1,26,25,Ht.png,Global,b,0,956,5,3270,997,622.1,FALSE,437,382.1
P1,26,25,Ht.png,Global,b,0,182,6,4258,812.9,642.8,FALSE,252.9,402.8
P1,26,25,Ht.png,Global,b,0,116,7,4488,1171.6,634.5,FALSE,611.6,394.5
P1,26,25,Ht.png,Global,b,0,48,8,4774,1044.6,1073.1,FALSE,484.6,833.1
P1,26,25,Ht.png,Global,b,0,120,9,4864,1148.8,638.8,FALSE,588.8,398.8
P1,26,25,Ht.png,Global,b,0,520,10,5004,1061.6,618,FALSE,501.6,378
P1,26,25,Ht.png,Global,b,0,176,11,5546,953.8,619.1,FALSE,393.8,379.1
P1,26,25,Ht.png,Global,b,0,284,12,5754,765.8,614.4,FALSE,205.8,374.4
P1,27,26,Ht.png,Global,b,0,218,1,10,715,602.6,FALSE,155,362.6
P1,27,26,Ht.png,Global,b,0,328,2,274,1025.6,628.2,FALSE,465.6,388.2
P1,27,26,Ht.png,Global,b,0,1820,3,736,1013.8,617.2,FALSE,453.8,377.2
P1,27,26,Ht.png,Global,b,0,488,4,2578,983.5,616.8,FALSE,423.5,376.8
P1,27,26,Ht.png,Global,b,0,22,5,3084,970.1,653.7,FALSE,410.1,413.7
P1,27,26,Ht.png,Global,b,0,880,6,3150,978.8,611.4,FALSE,418.8,371.4
P1,27,26,Ht.png,Global,b,0,70,7,4054,953.8,675.9,FALSE,393.8,435.9
P1,27,26,Ht.png,Global,b,0,224,8,4182,640.4,1066.4,FALSE,80.4,826.4
P1,27,26,Ht.png,Global,b,0,104,9,4432,573.2,1066.6,FALSE,13.2,826.6
P1,27,26,Ht.png,Global,b,0,156,10,4608,1015.3,332.6,FALSE,455.3,92.6
P1,27,26,Ht.png,Global,b,0,206,11,4794,1010,436.5,FALSE,450,196.5
P1,27,26,Ht.png,Global,b,0,502,12,5022,968.9,485.5,FALSE,408.9,245.5
P1,27,26,Ht.png,Global,b,0,134,13,5556,1050.7,596.8,FALSE,490.7,356.8
P1,27,26,Ht.png,Global,b,0,110,14,5710,1096.6,607.8,FALSE,536.6,367.8
P1,28,27,Lu.png,None,n,0,204,1,10,1106.6,618.8,FALSE,546.6,378.8
P1,28,27,Lu.png,None,n,0,2362,2,236,1010.4,614.9,FALSE,450.4,374.9
P1,28,27,Lu.png,None,n,0,34,3,2656,907.1,1096.9,FALSE,347.1,856.9
P1,28,27,Lu.png,None,n,0,724,4,2772,993.5,603.3,FALSE,433.5,363.3
P1,28,27,Lu.png,None,n,0,560,5,3514,964.5,615.9,FALSE,404.5,375.9
P1,28,27,Lu.png,None,n,0,306,6,4122,906.6,1100.9,FALSE,346.6,860.9
P1,28,27,Lu.png,None,n,0,206,7,4492,920.8,418.9,FALSE,360.8,178.9
P1,28,27,Lu.png,None,n,0,642,8,4716,926.9,465.7,FALSE,366.9,225.7
P1,28,27,Lu.png,None,n,0,200,9,5390,1046.5,586.7,FALSE,486.5,346.7
P1,28,27,Lu.png,None,n,0,88,10,5608,1090.4,602.7,FALSE,530.4,362.7
P1,29,28,Ss.png,None,n,0,212,1,10,1099.5,606.8,FALSE,539.5,366.8
P1,29,28,Ss.png,None,n,0,394,2,240,1029.8,590.8,FALSE,469.8,350.8
P1,29,28,Ss.png,None,n,0,882,3,852,1017.3,627.3,FALSE,457.3,387.3
P1,29,28,Ss.png,None,n,0,870,4,1956,1016.8,622.2,FALSE,456.8,382.2
P1,29,28,Ss.png,None,n,0,48,5,2848,1027.9,630.5,FALSE,467.9,390.5
P1,29,28,Ss.png,None,n,0,630,6,3036,1009.9,633.4,FALSE,449.9,393.4
P1,29,28,Ss.png,None,n,0,390,7,3858,1023.9,619.4,FALSE,463.9,379.4
P1,29,28,Ss.png,None,n,0,184,8,4284,789.3,612.3,FALSE,229.3,372.3
P1,29,28,Ss.png,None,n,0,608,9,4518,1126.8,606.4,FALSE,566.8,366.4
P1,29,28,Ss.png,None,n,0,140,10,5170,812.2,595.5,FALSE,252.2,355.5
P1,29,28,Ss.png,None,n,0,206,11,5334,715.8,604.9,FALSE,155.8,364.9
P1,29,28,Ss.png,None,n,0,76,12,5592,1126.6,621.1,FALSE,566.6,381.1
P1,29,28,Ss.png,None,n,0,176,13,5696,1267.1,611.7,FALSE,707.1,371.7
P1,29,28,Ss.png,None,n,0,166,14,5896,1345,588.5,FALSE,785,348.5
P1,30,29,Ss.png,None,n,0,32,1,10,1027.3,625.8,FALSE,467.3,385.8
P1,30,29,Ss.png,None,n,0,170,2,74,1270,616.5,FALSE,710,376.5
P1,30,29,Ss.png,None,n,0,1096,3,282,1004.2,589,FALSE,444.2,349
P1,30,29,Ss.png,None,n,0,340,4,1396,983.4,494.7,FALSE,423.4,254.7
P1,30,29,Ss.png,None,n,0,202,5,1800,758.2,1082.1,FALSE,198.2,842.1
P1,30,29,Ss.png,None,n,0,190,6,2066,1028.2,381.2,FALSE,468.2,141.2
P1,30,29,Ss.png,None,n,0,828,7,2282,1008.1,457.4,FALSE,448.1,217.4
P1,30,29,Ss.png,None,n,0,112,8,3178,594.8,1062,FALSE,34.8,822
P1,30,29,Ss.png,None,n,0,226,9,3310,650.8,1081.2,FALSE,90.8,841.2
P1,30,29,Ss.png,None,n,0,140,10,3594,994.7,761.5,FALSE,434.7,521.5
P1,30,29,Ss.png,None,n,0,304,11,3770,1010.1,561.9,FALSE,450.1,321.9
P1,30,29,Ss.png,None,n,0,194,12,4094,1018.6,509.9,FALSE,458.6,269.9
P1,30,29,Ss.png,None,n,0,136,13,4312,975.1,575.3,FALSE,415.1,335.3
P1,30,29,Ss.png,None,n,0,164,14,4470,1033.5,603.3,FALSE,473.5,363.3
P1,31,30,Uo.png,Local,b,0,1058,1,10,996.6,628.5,FALSE,436.6,388.5
P1,31,30,Uo.png,Local,b,0,144,2,1234,-137.6,-355.7,FALSE,-697.6,-595.7
P1,31,30,Uo.png,Local,b,0,88,3,1442,829.4,410.3,FALSE,269.4,170.3
P1,31,30,Uo.png,Local,b,0,136,4,1634,1748.2,-110.9,FALSE,1188.2,-350.9
P1,31,30,Uo.png,Local,b,0,110,5,1804,1720.3,-324.5,FALSE,1160.3,-564.5
P1,31,30,Uo.png,Local,b,0,172,6,1978,1041.2,497.5,FALSE,481.2,257.5
P1,31,30,Uo.png,Local,b,0,498,7,2180,978.8,602.9,FALSE,418.8,362.9
P1,31,30,Uo.png,Local,b,0,22,8,2700,1007,495.9,FALSE,447,255.9
P1,31,30,Uo.png,Local,b,0,148,9,2756,975.7,374.9,FALSE,415.7,134.9
P1,31,30,Uo.png,Local,b,0,216,10,2938,1017.4,522.5,FALSE,457.4,282.5
P1,31,30,Uo.png,Local,b,0,64,11,3178,957.7,572.8,FALSE,397.7,332.8
P1,31,30,Uo.png,Local,b,0,396,12,3272,983.1,706.8,FALSE,423.1,466.8
P1,31,30,Uo.png,Local,b,0,228,13,3712,887.1,1099.2,FALSE,327.1,859.2
P1,31,30,Uo.png,Local,b,0,78,14,3968,1027.3,1075,FALSE,467.3,835
P1,31,30,Uo.png,Local,b,0,180,15,4092,921.1,658.7,FALSE,361.1,418.7
P1,31,30,Uo.png,Local,b,0,608,16,4302,938.8,534.1,FALSE,378.8,294.1
P1,31,30,Uo.png,Local,b,0,312,17,4936,1031.3,595.1,FALSE,471.3,355.1
P1,32,31,Sh.png,Local,b,0,58,1,10,989.3,613,FALSE,429.3,373
P1,32,31,Sh.png,Local,b,0,450,2,86,1014.1,612.7,FALSE,454.1,372.7
P1,32,31,Sh.png,Local,b,0,80,3,812,944.1,605.8,FALSE,384.1,365.8
P1,32,31,Sh.png,Local,b,0,856,4,912,981.9,601.7,FALSE,421.9,361.7
P1,32,31,Sh.png,Local,b,0,682,5,1790,969.5,524.3,FALSE,409.5,284.3
P1,32,31,Sh.png,Local,b,0,202,6,2490,1000.5,504.3,FALSE,440.5,264.3
P1,32,31,Sh.png,Local,b,0,260,7,2716,988.7,588.7,FALSE,428.7,348.7
P1,32,31,Sh.png,Local,b,0,282,8,2996,987.6,521.6,FALSE,427.6,281.6
P1,32,31,Sh.png,Local,b,0,478,9,3296,994.2,471.6,FALSE,434.2,231.6
P1,32,31,Sh.png,Local,b,0,168,10,3828,815,1105.4,FALSE,255,865.4
P1,32,31,Sh.png,Local,b,0,180,11,4018,736.5,1096.7,FALSE,176.5,856.7
P1,32,31,Sh.png,Local,b,0,242,12,4258,1071.3,586.8,FALSE,511.3,346.8
P1,32,31,Sh.png,Local,b,0,174,13,4526,971.2,602.6,FALSE,411.2,362.6
P1,32,31,Sh.png,Local,b,0,114,14,4724,1065.4,603.7,FALSE,505.4,363.7
P1,33,32,Ll.png,None,n,0,198,1,10,953.1,624.9,FALSE,393.1,384.9
P1,33,32,Ll.png,None,n,0,240,2,230,1021.3,651.3,FALSE,461.3,411.3
P1,33,32,Ll.png,None,n,0,1010,3,718,1008.4,591.6,FALSE,448.4,351.6
P1,33,32,Ll.png,None,n,0,156,4,1744,958.9,568.5,FALSE,398.9,328.5
P1,33,32,Ll.png,None,n,0,270,5,1930,975.4,699.8,FALSE,415.4,459.8
P1,33,32,Ll.png,None,n,0,242,6,2252,877.8,1105.1,FALSE,317.8,865.1
P1,33,32,Ll.png,None,n,0,142,7,2544,1012.5,660,FALSE,452.5,420
P1,33,32,Ll.png,None,n,0,760,8,2720,954.8,513.8,FALSE,394.8,273.8
P1,33,32,Ll.png,None,n,0,308,9,3508,1056.1,611.5,FALSE,496.1,371.5
P1,34,33,Uu.png,None,n,0,128,1,300,989,592.2,FALSE,429,352.2
P1,34,33,Uu.png,None,n,0,860,2,444,1021.8,596.8,FALSE,461.8,356.8
P1,34,33,Uu.png,None,n,0,222,3,1370,1798.5,209.7,FALSE,1238.5,-30.3
P1,34,33,Uu.png,None,n,0,836,4,1652,989,581.4,FALSE,429,341.4
P1,34,33,Uu.png,None,n,0,180,5,2520,960.4,713.3,FALSE,400.4,473.3
P1,34,33,Uu.png,None,n,0,120,6,2716,1005,708.3,FALSE,445,468.3
P1,34,33,Uu.png,None,n,0,614,7,2870,979.4,527.6,FALSE,419.4,287.6
P1,34,33,Uu.png,None,n,0,184,8,3532,805.9,1098.3,FALSE,245.9,858.3
P1,34,33,Uu.png,None,n,0,572,9,3738,704.3,1085.7,FALSE,144.3,845.7
P1,34,33,Uu.png,None,n,0,288,10,4374,1059.3,601.1,FALSE,499.3,361.1
P1,34,33,Uu.png,None,n,0,318,11,4684,983.4,610.3,FALSE,423.4,370.3
P1,35,34,Lo.png,Local,b,0,290,1,82,1048.6,646.5,FALSE,488.6,406.5
P1,35,34,Lo.png,Local,b,0,174,2,422,874.5,1081,FALSE,314.5,841
P1,35,34,Lo.png,Local,b,0,126,3,650,997.8,741.6,FALSE,437.8,501.6
P1,35,34,Lo.png,Local,b,0,508,4,988,1012.8,595.8,FALSE,452.8,355.8
P1,35,34,Lo.png,Local,b,0,454,5,1754,1010.7,611.8,FALSE,450.7,371.8
P1,35,34,Lo.png,Local,b,0,224,6,2224,977.6,626.2,FALSE,417.6,386.2
P1,35,34,Lo.png,Local,b,0,210,7,2468,1024.3,641.8,FALSE,464.3,401.8
P1,35,34,Lo.png,Local,b,0,134,8,2952,1066.4,529.9,FALSE,506.4,289.9
P1,35,34,Lo.png,Local,b,0,318,9,3114,1010,618.5,FALSE,450,378.5
P1,35,34,Lo.png,Local,b,0,114,10,3510,1773.7,-81.5,FALSE,1213.7,-321.5
P1,35,34,Lo.png,Local,b,0,238,11,3686,1000.1,587.1,FALSE,440.1,347.1
P1,35,34,Lo.png,Local,b,0,188,12,4120,1022.9,611.2,FALSE,462.9,371.2
P1,35,34,Lo.png,Local,b,0,180,13,4330,953.7,574.1,FALSE,393.7,334.1
P1,35,34,Lo.png,Local,b,0,158,14,4536,983.9,641.8,FALSE,423.9,401.8
P1,35,34,Lo.png,Local,b,0,352,15,4712,951.7,578.7,FALSE,391.7,338.7
P1,35,34,Lo.png,Local,b,0,298,16,5080,955.2,541.2,FALSE,395.2,301.2
P1,35,34,Lo.png,Local,b,0,496,17,5436,845.8,1089.1,FALSE,285.8,849.1
P1,35,34,Lo.png,Local,b,0,106,18,5986,948.5,846.4,FALSE,388.5,606.4
P1,35,34,Lo.png,Local,b,0,266,19,6126,952.5,638.3,FALSE,392.5,398.3
P1,35,34,Lo.png,Local,b,0,284,20,6416,1019.2,643.3,FALSE,459.2,403.3
P1,36,35,Ll.png,None,n,0,894,1,10,1016.4,613.9,FALSE,456.4,373.9
P1,36,35,Ll.png,None,n,0,22,2,1062,936.5,1088.1,FALSE,376.5,848.1
P1,36,35,Ll.png,None,n,0,1262,3,1142,1014,619.4,FALSE,454,379.4
P1,36,35,Ll.png,None,n,0,178,4,2618,1003.3,579.7,FALSE,443.3,339.7
P1,36,35,Ll.png,None,n,0,524,5,2816,1008.5,582.3,FALSE,448.5,342.3
P1,36,35,Ll.png,None,n,0,180,6,3598,981.3,558.8,FALSE,421.3,318.8
P1,36,35,Ll.png,None,n,0,444,7,3800,1005.1,588.5,FALSE,445.1,348.5
P1,36,35,Ll.png,None,n,0,90,8,4276,818,602.8,FALSE,258,362.8
P1,36,35,Ll.png,None,n,0,250,9,4392,704.1,586.8,FALSE,144.1,346.8
P1,36,35,Ll.png,None,n,0,86,10,4692,1090.6,584.5,FALSE,530.6,344.5
P1,36,35,Ll.png,None,n,0,288,11,4808,1270.9,590.2,FALSE,710.9,350.2
P1,36,35,Ll.png,None,n,0,88,12,5118,1210.8,615,FALSE,650.8,375
P1,36,35,Ll.png,None,n,0,324,13,5402,1159.7,605.4,FALSE,599.7,365.4
P1,36,35,Ll.png,None,n,0,44,14,6002,861.4,1070.7,FALSE,301.4,830.7
P1,37,36,Ll.png,None,n,0,212,1,10,878.6,648.9,FALSE,318.6,408.9
P1,37,36,Ll.png,None,n,0,676,2,252,1004.8,623,FALSE,444.8,383
P1,37,36,Ll.png,None,n,0,670,3,1146,1016,594.9,FALSE,456,354.9
P1,37,36,Ll.png,None,n,0,448,4,1834,1010.1,604.8,FALSE,450.1,364.8
P1,37,36,Ll.png,None,n,0,112,5,2362,1702.5,178.5,FALSE,1142.5,-61.5
P1,37,36,Ll.png,None,n,0,160,6,2534,1050.7,578.2,FALSE,490.7,338.2
P1,37,36,Ll.png,None,n,0,270,7,2718,1005.8,610.3,FALSE,445.8,370.3
P1,37,36,Ll.png,None,n,0,572,8,3186,999.1,613.8,FALSE,439.1,373.8
P1,37,36,Ll.png,None,n,0,258,9,4000,1012.4,617.6,FALSE,452.4,377.6
P1,37,36,Ll.png,None,n,0,204,10,4292,780.9,616.2,FALSE,220.9,376.2
P1,37,36,Ll.png,None,n,0,88,11,4518,857.2,628.9,FALSE,297.2,388.9
P1,37,36,Ll.png,None,n,0,22,12,4844,894.3,1066.6,FALSE,334.3,826.6
P1,37,36,Ll.png,None,n,0,84,13,4920,961.9,671.4,FALSE,401.9,431.4
P1,37,36,Ll.png,None,n,0,84,14,5280,965.3,604.5,FALSE,405.3,364.5
P1,37,36,Ll.png,None,n,0,146,15,5658,907.4,579.9,FALSE,347.4,339.9
P1,37,36,Ll.png,None,n,0,218,16,5846,1171.3,630.8,FALSE,611.3,390.8
P1,38,37,Ll.png,None,n,0,174,1,10,944.3,504.7,FALSE,384.3,264.7
P1,38,37,Ll.png,None,n,0,456,2,214,993.8,623.1,FALSE,433.8,383.1
P1,38,37,Ll.png,None,n,0,390,3,930,998.8,639.5,FALSE,438.8,399.5
P1,38,37,Ll.png,None,n,0,668,4,1572,1010.9,605.5,FALSE,450.9,365.5
P1,38,37,Ll.png,None,n,0,212,5,2444,1041.6,618.4,FALSE,481.6,378.4
P1,38,37,Ll.png,None,n,0,154,6,2866,1007.4,563.9,FALSE,447.4,323.9
P1,38,37,Ll.png,None,n,0,266,7,3038,1014.2,591.3,FALSE,454.2,351.3
P1,38,37,Ll.png,None,n,0,194,8,3604,994.2,522.1,FALSE,434.2,282.1
P1,38,37,Ll.png,None,n,0,186,9,4158,1050.8,646.5,FALSE,490.8,406.5
P1,38,37,Ll.png,None,n,0,218,10,4384,781.7,635.7,FALSE,221.7,395.7
P1,38,37,Ll.png,None,n,0,188,11,4630,906.5,648.4,FALSE,346.5,408.4
P1,38,37,Ll.png,None,n,0,82,12,4856,1133.1,642.2,FALSE,573.1,402.2
P1,38,37,Ll.png,None,n,0,326,13,4966,1259.5,634.1,FALSE,699.5,394.1
P1,38,37,Ll.png,None,n,0,146,14,5312,1197.8,633.7,FALSE,637.8,393.7
P1,38,37,Ll.png,None,n,0,186,15,5688,916.6,636.3,FALSE,356.6,396.3
P1,38,37,Ll.png,None,n,0,148,16,5896,832.7,615.8,FALSE,272.7,375.8
P1,39,38,Ll.png,None,n,0,230,1,10,1296.5,622.8,FALSE,736.5,382.8
P1,39,38,Ll.png,None,n,0,354,2,284,1008.5,650.4,FALSE,448.5,410.4
P1,39,38,Ll.png,None,n,0,2030,3,782,1010.8,622.4,FALSE,450.8,382.4
P1,39,38,Ll.png,None,n,0,382,4,2910,990.8,600.2,FALSE,430.8,360.2
P1,39,38,Ll.png,None,n,0,702,5,3522,995.4,595,FALSE,435.4,355
P1,39,38,Ll.png,None,n,0,182,6,4258,808.5,625.3,FALSE,248.5,385.3
P1,39,38,Ll.png,None,n,0,146,7,4470,935.9,631.6,FALSE,375.9,391.6
P1,39,38,Ll.png,None,n,0,98,8,4652,1164.9,614.5,FALSE,604.9,374.5
P1,39,38,Ll.png,None,n,0,238,9,4772,1235.5,612.7,FALSE,675.5,372.7
P1,39,38,Ll.png,None,n,0,214,10,5050,1005.3,638.9,FALSE,445.3,398.9
P1,39,38,Ll.png,None,n,0,134,11,5286,948.4,634.1,FALSE,388.4,394.1
P1,39,38,Ll.png,None,n,0,184,12,5448,758.4,630.3,FALSE,198.4,390.3
P1,39,38,Ll.png,None,n,0,172,13,5820,709,641.7,FALSE,149,401.7
P1,39,38,Ll.png,None,n,0,32,14,6032,973.1,652.9,FALSE,413.1,412.9
P1,40,39,Ll.png,None,n,0,216,1,14,942.9,550.4,FALSE,382.9,310.4
P1,40,39,Ll.png,None,n,0,478,2,254,995.4,551.9,FALSE,435.4,311.9
P1,40,39,Ll.png,None,n,0,472,3,990,1002.1,579.6,FALSE,442.1,339.6
P1,40,39,Ll.png,None,n,0,846,4,1776,978.2,577.2,FALSE,418.2,337.2
P1,40,39,Ll.png,None,n,0,168,5,2650,933.2,689.7,FALSE,373.2,449.7
P1,40,39,Ll.png,None,n,0,184,6,2840,981.1,720.1,FALSE,421.1,480.1
P1,40,39,Ll.png,None,n,0,182,7,3078,844,1128.3,FALSE,284,888.3
P1,40,39,Ll.png,None,n,0,1182,8,3320,957.3,570.1,FALSE,397.3,330.1
P1,40,39,Ll.png,None,n,0,216,9,4528,1037.9,606.8,FALSE,477.9,366.8
P1,41,40,Ts.png,None,n,0,350,1,142,1046.4,630.1,FALSE,486.4,390.1
P1,41,40,Ts.png,None,n,0,848,2,840,1016.2,608.2,FALSE,456.2,368.2
P1,41,40,Ts.png,None,n,0,674,3,1888,1001.5,621.6,FALSE,441.5,381.6
P1,41,40,Ts.png,None,n,0,314,4,2676,1011.1,630.4,FALSE,451.1,390.4
P1,41,40,Ts.png,None,n,0,434,5,3006,991.6,605.3,FALSE,431.6,365.3
P1,41,40,Ts.png,None,n,0,198,6,3584,986.7,631.9,FALSE,426.7,391.9
P1,41,40,Ts.png,None,n,0,324,7,4010,990.3,590.2,FALSE,430.3,350.2
P1,41,40,Ts.png,None,n,0,178,8,4370,808,605.4,FALSE,248,365.4
P1,41,40,Ts.png,None,n,0,180,9,4570,871.5,637.6,FALSE,311.5,397.6
P1,41,40,Ts.png,None,n,0,180,10,4770,920.3,645.3,FALSE,360.3,405.3
P1,41,40,Ts.png,None,n,0,246,11,5004,1270.4,619.3,FALSE,710.4,379.3
P1,41,40,Ts.png,None,n,0,114,12,5448,1184.3,599.6,FALSE,624.3,359.6
P1,41,40,Ts.png,None,n,0,90,13,5590,1084.8,624.9,FALSE,524.8,384.9
P1,42,41,Ts.png,None,n,0,30,1,10,976.7,552.4,FALSE,416.7,312.4
P1,42,41,Ts.png,None,n,0,188,2,74,825.5,555.2,FALSE,265.5,315.2
P1,42,41,Ts.png,None,n,0,890,3,296,982.5,591.4,FALSE,422.5,351.4
P1,42,41,Ts.png,None,n,0,1054,4,1210,955.5,475,FALSE,395.5,235
P1,42,41,Ts.png,None,n,0,190,5,2284,993,441.3,FALSE,433,201.3
P1,42,41,Ts.png,None,n,0,124,6,2498,1005.9,529.8,FALSE,445.9,289.8
P1,42,41,Ts.png,None,n,0,136,7,2646,1069.3,578.3,FALSE,509.3,338.3
P1,43,42,Hs.png,Global,b,0,12,1,16,112.3,121.8,FALSE,-447.7,-118.2
P1,43,42,Hs.png,Global,b,0,150,2,134,983.3,553.4,FALSE,423.3,313.4
P1,43,42,Hs.png,Global,b,0,24,3,302,1024.3,590.1,FALSE,464.3,350.1
P1,43,42,Hs.png,Global,b,0,28,4,478,967.2,1097.6,FALSE,407.2,857.6
P1,43,42,Hs.png,Global,b,0,118,5,650,1027,561.7,FALSE,467,321.7
P1,43,42,Hs.png,Global,b,0,266,6,824,1315.5,1029.4,FALSE,755.5,789.4
P1,43,42,Hs.png,Global,b,0,136,7,1116,1410.7,994.3,FALSE,850.7,754.3
P1,43,42,Hs.png,Global,b,0,326,8,1276,1466.9,974.7,FALSE,906.9,734.7
P1,43,42,Hs.png,Global,b,0,122,9,1658,1078.1,676.5,FALSE,518.1,436.5
P1,43,42,Hs.png,Global,b,0,656,10,1802,1019.2,630.8,FALSE,459.2,390.8
P1,43,42,Hs.png,Global,b,0,156,11,2716,1009.5,624.7,FALSE,449.5,384.7
P1,43,42,Hs.png,Global,b,0,156,12,2930,1469.6,963.9,FALSE,909.6,723.9
P1,43,42,Hs.png,Global,b,0,248,13,3146,896.3,1067.4,FALSE,336.3,827.4
P1,43,42,Hs.png,Global,b,0,164,14,3596,1033.1,524.9,FALSE,473.1,284.9
P1,43,42,Hs.png,Global,b,0,474,15,3788,1005.5,582.7,FALSE,445.5,342.7
P1,43,42,Hs.png,Global,b,0,210,16,4296,840.7,624.8,FALSE,280.7,384.8
P1,43,42,Hs.png,Global,b,0,124,17,4522,880.3,637.1,FALSE,320.3,397.1
P1,43,42,Hs.png,Global,b,0,112,18,4920,934.5,599.5,FALSE,374.5,359.5
P1,43,42,Hs.png,Global,b,0,578,19,5062,1066.7,629.6,FALSE,506.7,389.6
P1,43,42,Hs.png,Global,b,0,152,20,5668,916.2,631.3,FALSE,356.2,391.3
P1,43,42,Hs.png,Global,b,0,226,21,5848,777.3,620.6,FALSE,217.3,380.6
P1,44,43,Hs.png,Global,b,0,244,1,10,793.8,602.2,FALSE,233.8,362.2
P1,44,43,Hs.png,Global,b,0,466,2,288,996.3,607.6,FALSE,436.3,367.6
P1,44,43,Hs.png,Global,b,0,84,3,890,775.3,329.1,FALSE,215.3,89.1
P1,44,43,Hs.png,Global,b,0,40,4,1244,920,555,FALSE,360,315
P1,44,43,Hs.png,Global,b,0,356,5,1310,1005.3,613.5,FALSE,445.3,373.5
P1,44,43,Hs.png,Global,b,0,110,6,1866,999.3,471.3,FALSE,439.3,231.3
P1,44,43,Hs.png,Global,b,0,256,7,2010,1021.7,614,FALSE,461.7,374
P1,44,43,Hs.png,Global,b,0,98,8,2354,1743.4,75.7,FALSE,1183.4,-164.3
P1,44,43,Hs.png,Global,b,0,118,9,2496,1693,-233.4,FALSE,1133,-473.4
P1,44,43,Hs.png,Global,b,0,28,10,2878,734.1,379,FALSE,174.1,139
P1,44,43,Hs.png,Global,b,0,526,11,2950,1009,625,FALSE,449,385
P1,44,43,Hs.png,Global,b,0,542,12,3754,998.1,642.2,FALSE,438.1,402.2
P1,44,43,Hs.png,Global,b,0,142,13,4330,827.1,618.5,FALSE,267.1,378.5
P1,44,43,Hs.png,Global,b,0,60,14,4496,916.7,639.3,FALSE,356.7,399.3
P1,44,43,Hs.png,Global,b,0,108,15,4588,1083.5,639.5,FALSE,523.5,399.5
P1,44,43,Hs.png,Global,b,0,108,16,4722,1219.5,625.5,FALSE,659.5,385.5
P1,44,43,Hs.png,Global,b,0,240,17,4852,1287.7,618.9,FALSE,727.7,378.9
P1,44,43,Hs.png,Global,b,0,190,18,5142,942.3,623.1,FALSE,382.3,383.1
P1,44,43,Hs.png,Global,b,0,162,19,5356,852.9,624.7,FALSE,292.9,384.7
P1,44,43,Hs.png,Global,b,0,216,20,5544,977.4,629.4,FALSE,417.4,389.4
P1,44,43,Hs.png,Global,b,0,278,21,5786,1089.8,632.5,FALSE,529.8,392.5
P1,45,44,Hs.png,Global,b,0,564,1,10,1017,618.5,FALSE,457,378.5
P1,45,44,Hs.png,Global,b,0,132,2,598,958.1,613.9,FALSE,398.1,373.9
P1,45,44,Hs.png,Global,b,0,210,3,750,1000.3,625.2,FALSE,440.3,385.2
P1,45,44,Hs.png,Global,b,0,22,4,1110,897.8,1083,FALSE,337.8,843
P1,45,44,Hs.png,Global,b,0,1496,5,1200,1000.7,637.5,FALSE,440.7,397.5
P1,45,44,Hs.png,Global,b,0,132,6,2788,1728.8,-27.2,FALSE,1168.8,-267.2
P1,45,44,Hs.png,Global,b,0,218,7,2992,1011.5,578.7,FALSE,451.5,338.7
P1,45,44,Hs.png,Global,b,0,552,8,3226,990,611.7,FALSE,430,371.7
P1,45,44,Hs.png,Global,b,0,46,9,3886,1004.7,677.9,FALSE,444.7,437.9
P1,45,44,Hs.png,Global,b,0,184,10,4100,1006.1,639.4,FALSE,446.1,399.4
P1,45,44,Hs.png,Global,b,0,254,11,4318,835.7,624.8,FALSE,275.7,384.8
P1,45,44,Hs.png,Global,b,0,76,12,4596,901,652.4,FALSE,341,412.4
P1,45,44,Hs.png,Global,b,0,56,13,4800,909.7,983.3,FALSE,349.7,743.3
P1,45,44,Hs.png,Global,b,0,224,14,4880,967.4,629.3,FALSE,407.4,389.3
P1,45,44,Hs.png,Global,b,0,176,15,5124,1015,618,FALSE,455,378
P1,45,44,Hs.png,Global,b,0,92,16,5576,1031.2,548.9,FALSE,471.2,308.9
P1,45,44,Hs.png,Global,b,0,150,17,5698,898.1,612.7,FALSE,338.1,372.7
P1,45,44,Hs.png,Global,b,0,164,18,5876,751.4,603.8,FALSE,191.4,363.8
P1,46,45,Hs.png,Global,b,0,92,1,10,1059.4,621,FALSE,499.4,381
P1,46,45,Hs.png,Global,b,0,140,2,140,854,618.9,FALSE,294,378.9
P1,46,45,Hs.png,Global,b,0,932,3,314,1004.4,619.3,FALSE,444.4,379.3
P1,46,45,Hs.png,Global,b,0,854,4,1380,1003.2,618.8,FALSE,443.2,378.8
P1,46,45,Hs.png,Global,b,0,534,5,2370,995.1,626.7,FALSE,435.1,386.7
P1,46,45,Hs.png,Global,b,0,1136,6,3170,1004.5,612.1,FALSE,444.5,372.1
P1,46,45,Hs.png,Global,b,0,162,7,4342,820.4,612.4,FALSE,260.4,372.4
P1,46,45,Hs.png,Global,b,0,272,8,4534,977.9,635.5,FALSE,417.9,395.5
P1,46,45,Hs.png,Global,b,0,196,9,4828,1043.6,628.9,FALSE,483.6,388.9
P1,46,45,Hs.png,Global,b,0,224,10,5060,1214.6,612.6,FALSE,654.6,372.6
P1,46,45,Hs.png,Global,b,0,174,11,5308,1127.2,626.4,FALSE,567.2,386.4
P1,46,45,Hs.png,Global,b,0,92,12,5502,1076.6,631.8,FALSE,516.6,391.8
P1,46,45,Hs.png,Global,b,0,180,13,5772,1032.6,617.8,FALSE,472.6,377.8
P1,46,45,Hs.png,Global,b,0,88,14,5976,938.9,637.6,FALSE,378.9,397.6
P1,47,46,Hs.png,Global,b,0,92,1,136,963.2,487.7,FALSE,403.2,247.7
P1,47,46,Hs.png,Global,b,0,610,2,262,993.2,603.7,FALSE,433.2,363.7
P1,47,46,Hs.png,Global,b,0,84,3,1438,979.3,497.1,FALSE,419.3,257.1
P1,47,46,Hs.png,Global,b,0,1474,4,1550,976.2,602.2,FALSE,416.2,362.2
P1,47,46,Hs.png,Global,b,0,130,5,3072,875.8,1028.5,FALSE,315.8,788.5
P1,47,46,Hs.png,Global,b,0,238,6,3238,703.9,1106.2,FALSE,143.9,866.2
P1,47,46,Hs.png,Global,b,0,176,7,3500,782.1,1113.5,FALSE,222.1,873.5
P1,47,46,Hs.png,Global,b,0,130,8,3730,975.5,671.2,FALSE,415.5,431.2
P1,47,46,Hs.png,Global,b,0,176,9,3894,984.7,481.9,FALSE,424.7,241.9
P1,47,46,Hs.png,Global,b,0,624,10,4090,960.1,463.4,FALSE,400.1,223.4
P1,47,46,Hs.png,Global,b,0,150,11,4746,1054.9,587.7,FALSE,494.9,347.7
P1,47,46,Hs.png,Global,b,0,130,12,4918,1100.5,592.8,FALSE,540.5,352.8
P1,48,47,Ul.png,None,n,0,186,1,10,964.8,619.1,FALSE,404.8,379.1
P1,48,47,Ul.png,None,n,0,916,2,406,1024.4,592.9,FALSE,464.4,352.9
P1,48,47,Ul.png,None,n,0,28,3,1344,984.3,587.6,FALSE,424.3,347.6
P1,48,47,Ul.png,None,n,0,210,4,1602,1039.2,585.2,FALSE,479.2,345.2
P1,48,47,Ul.png,None,n,0,254,5,1834,986.3,598.8,FALSE,426.3,358.8
P1,48,47,Ul.png,None,n,0,104,6,2108,1023.1,595,FALSE,463.1,355
P1,48,47,Ul.png,None,n,0,30,7,2280,1776.9,261.1,FALSE,1216.9,21.1
P1,48,47,Ul.png,None,n,0,104,8,2342,1840,179.7,FALSE,1280,-60.3
P1,48,47,Ul.png,None,n,0,150,9,2514,1006.1,542.1,FALSE,446.1,302.1
P1,48,47,Ul.png,None,n,0,88,10,2766,83.3,81,FALSE,-476.7,-159
P1,48,47,Ul.png,None,n,0,172,11,2888,-87.1,-26.2,FALSE,-647.1,-266.2
P1,48,47,Ul.png,None,n,0,132,12,3210,970.4,526.3,FALSE,410.4,286.3
P1,48,47,Ul.png,None,n,0,138,13,3360,1006.3,576.9,FALSE,446.3,336.9
P1,48,47,Ul.png,None,n,0,286,14,3840,988.2,521.2,FALSE,428.2,281.2
P1,48,47,Ul.png,None,n,0,24,15,4188,1404.3,1013,FALSE,844.3,773
P1,48,47,Ul.png,None,n,0,134,16,4304,992.3,519.8,FALSE,432.3,279.8
P1,48,47,Ul.png,None,n,0,38,17,4756,926,481.2,FALSE,366,241.2
P1,48,47,Ul.png,None,n,0,170,18,4828,780.9,513.6,FALSE,220.9,273.6
P1,48,47,Ul.png,None,n,0,164,19,5020,720.7,515.6,FALSE,160.7,275.6
P1,48,47,Ul.png,None,n,0,38,20,5212,830.3,581.1,FALSE,270.3,341.1
P1,48,47,Ul.png,None,n,0,226,21,5282,1052.4,564.9,FALSE,492.4,324.9
P1,48,47,Ul.png,None,n,0,278,22,5540,1219.4,579.3,FALSE,659.4,339.3
P1,48,47,Ul.png,None,n,0,194,23,5870,807.7,591.4,FALSE,247.7,351.4
P1,49,48,Ul.png,None,n,0,2,1,140,749.5,1099.4,FALSE,189.5,859.4
P1,49,48,Ul.png,None,n,0,24,2,230,910.1,592.3,FALSE,350.1,352.3
P1,49,48,Ul.png,None,n,0,184,3,272,954.7,593.5,FALSE,394.7,353.5
P1,49,48,Ul.png,None,n,0,430,4,472,981.1,614.1,FALSE,421.1,374.1
P1,49,48,Ul.png,None,n,0,254,5,1200,992.4,587.4,FALSE,432.4,347.4
P1,49,48,Ul.png,None,n,0,24,6,1682,857.7,1090.9,FALSE,297.7,850.9
P1,49,48,Ul.png,None,n,0,216,7,1774,971.8,566.7,FALSE,411.8,326.7
P1,49,48,Ul.png,None,n,0,32,8,2008,1001.2,486.2,FALSE,441.2,246.2
P1,49,48,Ul.png,None,n,0,392,9,2056,1002.3,518.1,FALSE,442.3,278.1
P1,49,48,Ul.png,None,n,0,764,10,2466,1001.8,593.4,FALSE,441.8,353.4
P1,49,48,Ul.png,None,n,0,524,11,3252,956.7,526.8,FALSE,396.7,286.8
P1,49,48,Ul.png,None,n,0,164,12,3884,1914,803.6,FALSE,1354,563.6
P1,49,48,Ul.png,None,n,0,22,13,4078,1916.9,803.6,FALSE,1356.9,563.6
P1,49,48,Ul.png,None,n,0,24,14,4132,1875.5,846.2,FALSE,1315.5,606.2
P1,49,48,Ul.png,None,n,0,144,15,4232,1010.8,517.2,FALSE,450.8,277.2
P1,49,48,Ul.png,None,n,0,126,16,4408,993.3,435.1,FALSE,433.3,195.1
P1,49,48,Ul.png,None,n,0,232,17,4554,993.3,476.9,FALSE,433.3,236.9
P1,49,48,Ul.png,None,n,0,140,18,4812,1056.2,502.5,FALSE,496.2,262.5
P1,49,48,Ul.png,None,n,0,130,19,4968,1093.9,528,FALSE,533.9,288
P1,50,49,Tt.png,None,n,0,18,1,10,250,300.1,FALSE,-310,60.1
P1,50,49,Tt.png,None,n,0,114,2,134,1066.6,585.3,FALSE,506.6,345.3
P1,50,49,Tt.png,None,n,0,728,3,268,1020.6,586,FALSE,460.6,346
P1,50,49,Tt.png,None,n,0,380,4,1318,990.5,551.6,FALSE,430.5,311.6
P1,50,49,Tt.png,None,n,0,174,5,1928,980.5,572.4,FALSE,420.5,332.4
P1,50,49,Tt.png,None,n,0,224,6,2168,667.9,1097.6,FALSE,107.9,857.6
P1,50,49,Tt.png,None,n,0,138,7,2418,583.1,1085.9,FALSE,23.1,845.9
P1,50,49,Tt.png,None,n,0,1642,8,2644,1050.1,437.6,FALSE,490.1,197.6
P1,50,49,Tt.png,None,n,0,144,9,4314,1041.7,542.5,FALSE,481.7,302.5
P1,50,49,Tt.png,None,n,0,36,10,4480,1106.3,585,FALSE,546.3,345
P1,51,50,Lu.png,None,n,0,356,1,10,989.2,606.9,FALSE,429.2,366.9
P1,51,50,Lu.png,None,n,0,52,2,382,1019.9,591.1,FALSE,459.9,351.1
P1,51,50,Lu.png,None,n,0,340,3,790,1025.9,583.5,FALSE,465.9,343.5
P1,51,50,Lu.png,None,n,0,68,4,1292,939.6,1064.4,FALSE,379.6,824.4
P1,51,50,Lu.png,None,n,0,300,5,1410,1020.9,506.3,FALSE,460.9,266.3
P1,51,50,Lu.png,None,n,0,58,6,1926,904.9,1110.6,FALSE,344.9,870.6
P1,51,50,Lu.png,None,n,0,118,7,2046,1022.1,577.1,FALSE,462.1,337.1
P1,51,50,Lu.png,None,n,0,216,8,2482,1013.9,504,FALSE,453.9,264
P1,51,50,Lu.png,None,n,0,144,9,2716,1017.2,575.7,FALSE,457.2,335.7
P1,51,50,Lu.png,None,n,0,220,10,3074,984.8,567.5,FALSE,424.8,327.5
P1,51,50,Lu.png,None,n,0,922,11,3312,1007.2,611.6,FALSE,447.2,371.6
P1,51,50,Lu.png,None,n,0,194,12,4266,810,629.8,FALSE,250,389.8
P1,51,50,Lu.png,None,n,0,62,13,4484,896.7,623.3,FALSE,336.7,383.3
P1,51,50,Lu.png,None,n,0,48,14,4704,944.4,1031.9,FALSE,384.4,791.9
P1,51,50,Lu.png,None,n,0,258,15,4790,989.1,603.3,FALSE,429.1,363.3
P1,51,50,Lu.png,None,n,0,252,16,5068,1033.1,625.3,FALSE,473.1,385.3
P1,51,50,Lu.png,None,n,0,380,17,5342,1099.2,624.9,FALSE,539.2,384.9
P1,51,50,Lu.png,None,n,0,136,18,5752,953.9,619.3,FALSE,393.9,379.3
P1,51,50,Lu.png,None,n,0,148,19,5918,785.6,603.7,FALSE,225.6,363.7
P1,52,51,Lu.png,None,n,0,202,1,10,1268.4,601.7,FALSE,708.4,361.7
P1,52,51,Lu.png,None,n,0,138,2,252,1020.7,601.2,FALSE,460.7,361.2
P1,52,51,Lu.png,None,n,0,88,3,408,979.1,599.2,FALSE,419.1,359.2
P1,52,51,Lu.png,None,n,0,154,4,626,1004,606.1,FALSE,444,366.1
P1,52,51,Lu.png,None,n,0,26,5,1016,899.2,1098.5,FALSE,339.2,858.5
P1,52,51,Lu.png,None,n,0,54,6,1102,970.2,536.3,FALSE,410.2,296.3
P1,52,51,Lu.png,None,n,0,2072,7,1178,957.5,583.9,FALSE,397.5,343.9
P1,52,51,Lu.png,None,n,0,84,8,3272,1012.4,605.3,FALSE,452.4,365.3
P1,53,52,Ul.png,None,n,0,186,1,10,1019.6,626.9,FALSE,459.6,386.9
P1,53,52,Ul.png,None,n,0,194,2,420,1008.3,623.8,FALSE,448.3,383.8
P1,53,52,Ul.png,None,n,0,72,3,834,990.3,552.8,FALSE,430.3,312.8
P1,53,52,Ul.png,None,n,0,126,4,926,1010.1,592.6,FALSE,450.1,352.6
P1,53,52,Ul.png,None,n,0,152,5,1108,1353,990.2,FALSE,793,750.2
P1,53,52,Ul.png,None,n,0,492,6,1534,987.1,581,FALSE,427.1,341
P1,53,52,Ul.png,None,n,0,110,7,2298,977.5,572,FALSE,417.5,332
P1,53,52,Ul.png,None,n,0,832,8,2632,986.5,590.5,FALSE,426.5,350.5
P1,53,52,Ul.png,None,n,0,52,9,3488,951.7,673.6,FALSE,391.7,433.6
P1,53,52,Ul.png,None,n,0,378,10,3562,982.6,736.1,FALSE,422.6,496.1
P1,53,52,Ul.png,None,n,0,214,11,3994,793.3,1115.4,FALSE,233.3,875.4
P1,53,52,Ul.png,None,n,0,188,12,4238,673.5,1104.5,FALSE,113.5,864.5
P1,53,52,Ul.png,None,n,0,206,13,4490,1042,651.5,FALSE,482,411.5
P1,53,52,Ul.png,None,n,0,194,14,4728,1037.8,521.6,FALSE,477.8,281.6
P1,53,52,Ul.png,None,n,0,178,15,4944,991.4,555,FALSE,431.4,315
P1,53,52,Ul.png,None,n,0,108,16,5140,1027.2,578.1,FALSE,467.2,338.1
P1,54,53,St.png,None,n,0,18,1,10,199.4,479.8,FALSE,-360.6,239.8
P1,54,53,St.png,None,n,0,524,2,784,984.4,618.9,FALSE,424.4,378.9
P1,54,53,St.png,None,n,0,1028,3,1596,999.2,600.5,FALSE,439.2,360.5
P1,54,53,St.png,None,n,0,394,4,2650,1005.1,489.7,FALSE,445.1,249.7
P1,54,53,St.png,None,n,0,724,5,3068,948.3,542.1,FALSE,388.3,302.1
P1,54,53,St.png,None,n,0,260,6,3818,1002.2,493.1,FALSE,442.2,253.1
P1,54,53,St.png,None,n,0,138,7,4104,1034,590.9,FALSE,474,350.9
P1,55,54,Th.png,Local,b,0,626,1,244,1020.7,513.7,FALSE,460.7,273.7
P1,55,54,Th.png,Local,b,0,464,2,1188,974.6,476.9,FALSE,414.6,236.9
P1,55,54,Th.png,Local,b,0,46,3,1808,1796.6,888,FALSE,1236.6,648
P1,55,54,Th.png,Local,b,0,32,4,1944,1887.6,823.3,FALSE,1327.6,583.3
P1,55,54,Th.png,Local,b,0,150,5,1998,1857.6,822.5,FALSE,1297.6,582.5
P1,55,54,Th.png,Local,b,0,268,6,2390,1066.2,438.2,FALSE,506.2,198.2
P1,56,55,Ss.png,None,n,0,430,1,228,1026.9,653.2,FALSE,466.9,413.2
P1,56,55,Ss.png,None,n,0,232,2,902,1071.5,633.4,FALSE,511.5,393.4
P1,56,55,Ss.png,None,n,0,810,3,1156,1006.5,673.8,FALSE,446.5,433.8
P1,56,55,Ss.png,None,n,0,122,4,2186,1059.6,668.1,FALSE,499.6,428.1
P1,56,55,Ss.png,None,n,0,252,5,2326,1025.7,692,FALSE,465.7,452
P1,56,55,Ss.png,None,n,0,410,6,2844,1022.6,642.6,FALSE,462.6,402.6
P1,56,55,Ss.png,None,n,0,488,7,3526,1016.6,655.4,FALSE,456.6,415.4
P1,56,55,Ss.png,None,n,0,118,8,4096,1726,73.9,FALSE,1166,-166.1
P1,56,55,Ss.png,None,n,0,158,9,4280,1023.4,625.7,FALSE,463.4,385.7
P1,56,55,Ss.png,None,n,0,198,10,4472,801.6,657.4,FALSE,241.6,417.4
P1,56,55,Ss.png,None,n,0,102,11,4702,994.9,668.9,FALSE,434.9,428.9
P1,56,55,Ss.png,None,n,0,64,12,4832,1123.3,682.5,FALSE,563.3,442.5
P1,56,55,Ss.png,None,n,0,148,13,4924,1252.5,665.9,FALSE,692.5,425.9
P1,56,55,Ss.png,None,n,0,92,14,5302,955.8,669.7,FALSE,395.8,429.7
P1,56,55,Ss.png,None,n,0,222,15,5426,798.4,679.5,FALSE,238.4,439.5
P1,56,55,Ss.png,None,n,0,268,16,5694,1057.6,686.5,FALSE,497.6,446.5
P1,56,55,Ss.png,None,n,0,92,17,5984,1119.2,704.3,FALSE,559.2,464.3
P1,57,56,Ss.png,None,n,0,68,1,12,938.8,609.3,FALSE,378.8,369.3
P1,57,56,Ss.png,None,n,0,116,2,352,963.1,580.8,FALSE,403.1,340.8
P1,57,56,Ss.png,None,n,0,104,3,800,983.7,541.6,FALSE,423.7,301.6
P1,57,56,Ss.png,None,n,0,918,4,924,999,615.5,FALSE,439,375.5
P1,57,56,Ss.png,None,n,0,162,5,2060,1003.2,574.3,FALSE,443.2,334.3
P1,57,56,Ss.png,None,n,0,1418,6,2240,1016,608.9,FALSE,456,368.9
P1,57,56,Ss.png,None,n,0,648,7,3862,1000.7,616.8,FALSE,440.7,376.8
P1,57,56,Ss.png,None,n,0,124,8,4538,1142.6,621.6,FALSE,582.6,381.6
P1,57,56,Ss.png,None,n,0,120,9,4688,1232.1,617.2,FALSE,672.1,377.2
P1,57,56,Ss.png,None,n,0,176,10,4830,1308.9,604.8,FALSE,748.9,364.8
P1,57,56,Ss.png,None,n,0,186,11,5028,1244.4,609.8,FALSE,684.4,369.8
P1,57,56,Ss.png,None,n,0,96,12,5260,1039.4,610.8,FALSE,479.4,370.8
P1,57,56,Ss.png,None,n,0,202,13,5388,876.5,619.6,FALSE,316.5,379.6
P1,57,56,Ss.png,None,n,0,96,14,5806,987.1,574.4,FALSE,427.1,334.4
P1,57,56,Ss.png,None,n,0,42,15,5926,1050.2,618.6,FALSE,490.2,378.6
P1,57,56,Ss.png,None,n,0,64,16,6010,1249.5,619.7,FALSE,689.5,379.7
P1,58,57,Ss.png,None,n,0,162,1,42,1727.6,-91.9,FALSE,1167.6,-331.9
P1,58,57,Ss.png,None,n,0,306,2,266,992.6,583.7,FALSE,432.6,343.7
P1,58,57,Ss.png,None,n,0,168,3,1436,973,576.2,FALSE,413,336.2
P1,58,57,Ss.png,None,n,0,220,4,1624,1004.1,616.4,FALSE,444.1,376.4
P1,58,57,Ss.png,None,n,0,792,5,2164,973.6,534.4,FALSE,413.6,294.4
P1,58,57,Ss.png,None,n,0,872,6,2974,958.1,524.2,FALSE,398.1,284.2
P1,58,57,Ss.png,None,n,0,160,7,3906,787.8,1140.5,FALSE,227.8,900.5
P1,58,57,Ss.png,None,n,0,276,8,4086,784.2,1139.7,FALSE,224.2,899.7
P1,58,57,Ss.png,None,n,0,142,9,4432,1044.1,616,FALSE,484.1,376
P1,58,57,Ss.png,None,n,0,212,10,4610,1021.1,501.1,FALSE,461.1,261.1
P1,58,57,Ss.png,None,n,0,114,11,4844,1007.2,572.8,FALSE,447.2,332.8
P1,58,57,Ss.png,None,n,0,82,12,4982,1074,618.1,FALSE,514,378.1
P1,59,58,Hs.png,Global,b,0,90,1,10,1008.7,638.7,FALSE,448.7,398.7
P1,59,58,Hs.png,Global,b,0,166,2,120,1067.4,658.5,FALSE,507.4,418.5
P1,59,58,Hs.png,Global,b,0,222,3,302,1030.3,659.6,FALSE,470.3,419.6
P1,59,58,Hs.png,Global,b,0,426,4,844,997.5,608.1,FALSE,437.5,368.1
P1,59,58,Hs.png,Global,b,0,112,5,1568,964.4,554.8,FALSE,404.4,314.8
P1,59,58,Hs.png,Global,b,0,496,6,1700,998.1,606.6,FALSE,438.1,366.6
P1,59,58,Hs.png,Global,b,0,68,7,2396,1688.1,52.7,FALSE,1128.1,-187.3
P1,59,58,Hs.png,Global,b,0,184,8,2524,1065.6,560.1,FALSE,505.6,320.1
P1,59,58,Hs.png,Global,b,0,168,9,2758,1343.5,994.6,FALSE,783.5,754.6
P1,59,58,Hs.png,Global,b,0,266,10,2976,918.1,1093.9,FALSE,358.1,853.9
P1,59,58,Hs.png,Global,b,0,832,11,3298,1030.1,601.2,FALSE,470.1,361.2
P1,59,58,Hs.png,Global,b,0,194,12,4280,988.3,583.7,FALSE,428.3,343.7
P1,59,58,Hs.png,Global,b,0,224,13,4874,991.2,531,FALSE,431.2,291
P1,59,58,Hs.png,Global,b,0,630,14,5122,928.5,590.4,FALSE,368.5,350.4
P1,60,59,Hs.png,Global,b,0,134,1,114,866.6,544.4,FALSE,306.6,304.4
P1,60,59,Hs.png,Global,b,0,438,2,286,992.9,644.3,FALSE,432.9,404.3
P1,60,59,Hs.png,Global,b,0,1908,3,1100,974.1,587.3,FALSE,414.1,347.3
P1,60,59,Hs.png,Global,b,0,262,4,3028,983.5,570.3,FALSE,423.5,330.3
P1,60,59,Hs.png,Global,b,0,276,5,3312,1046.3,586.5,FALSE,486.3,346.5
P1,61,60,Lo.png,Local,b,0,132,1,264,1054.5,489.2,FALSE,494.5,249.2
P1,61,60,Lo.png,Local,b,0,44,2,416,1019.3,529,FALSE,459.3,289
P1,61,60,Lo.png,Local,b,0,298,3,796,1023.5,539.9,FALSE,463.5,299.9
P1,61,60,Lo.png,Local,b,0,656,4,1446,998.4,524.2,FALSE,438.4,284.2
P1,61,60,Lo.png,Local,b,0,90,5,2152,953.9,988.5,FALSE,393.9,748.5
P1,61,60,Lo.png,Local,b,0,158,6,2348,969.9,581.2,FALSE,409.9,341.2
P1,61,60,Lo.png,Local,b,0,170,7,2528,927.9,534.4,FALSE,367.9,294.4
P1,61,60,Lo.png,Local,b,0,352,8,2716,917.9,523.6,FALSE,357.9,283.6
P1,61,60,Lo.png,Local,b,0,242,9,3124,714.2,1124.6,FALSE,154.2,884.6
P1,61,60,Lo.png,Local,b,0,100,10,3390,614.5,1111.8,FALSE,54.5,871.8
P1,61,60,Lo.png,Local,b,0,148,11,3520,740.7,1129.8,FALSE,180.7,889.8
P1,61,60,Lo.png,Local,b,0,230,12,3768,958,431.5,FALSE,398,191.5
P1,61,60,Lo.png,Local,b,0,172,13,4028,1075.6,548.2,FALSE,515.6,308.2
P1,61,60,Lo.png,Local,b,0,110,14,4218,1098.5,597.7,FALSE,538.5,357.7
P1,62,61,Ol.png,Global,b,0,216,1,10,1085.6,676.3,FALSE,525.6,436.3
P1,62,61,Ol.png,Global,b,0,558,2,244,1022.3,623.7,FALSE,462.3,383.7
P1,62,61,Ol.png,Global,b,0,192,3,938,999.6,731.1,FALSE,439.6,491.1
P1,62,61,Ol.png,Global,b,0,40,4,1362,1655.3,-301.4,FALSE,1095.3,-541.4
P1,62,61,Ol.png,Global,b,0,152,5,1442,1668.9,-485.1,FALSE,1108.9,-725.1
P1,62,61,Ol.png,Global,b,0,46,6,1620,1538.5,-501.5,FALSE,978.5,-741.5
P1,62,61,Ol.png,Global,b,0,36,7,1754,521.9,-376.8,FALSE,-38.1,-616.8
P1,62,61,Ol.png,Global,b,0,126,8,1854,-64.1,-736.2,FALSE,-624.1,-976.2
P1,62,61,Ol.png,Global,b,0,148,9,2048,1054.3,502.6,FALSE,494.3,262.6
P1,62,61,Ol.png,Global,b,0,196,10,2222,1021.5,579.8,FALSE,461.5,339.8
P1,62,61,Ol.png,Global,b,0,652,11,2718,1025.2,556.1,FALSE,465.2,316.1
P1,62,61,Ol.png,Global,b,0,132,12,3678,1009,488.7,FALSE,449,248.7
P1,62,61,Ol.png,Global,b,0,1292,13,3830,993.1,481.7,FALSE,433.1,241.7
P1,62,61,Ol.png,Global,b,0,312,14,5152,1064.3,594.3,FALSE,504.3,354.3
P1,63,62,Ht.png,Global,b,0,436,1,334,1013.2,602.3,FALSE,453.2,362.3
P1,63,62,Ht.png,Global,b,0,1042,2,1100,1021.3,592,FALSE,461.3,352
P1,63,62,Ht.png,Global,b,0,248,3,2448,1046.9,515.9,FALSE,486.9,275.9
P1,63,62,Ht.png,Global,b,0,374,4,3046,1039.4,561.9,FALSE,479.4,321.9
P1,63,62,Ht.png,Global,b,0,170,5,3754,1022,495.8,FALSE,462,255.8
P1,63,62,Ht.png,Global,b,0,278,6,3946,1027.6,585.5,FALSE,467.6,345.5
P1,63,62,Ht.png,Global,b,0,290,7,4260,830.9,642.9,FALSE,270.9,402.9
P1,63,62,Ht.png,Global,b,0,110,8,4570,882.7,641.8,FALSE,322.7,401.8
P1,63,62,Ht.png,Global,b,0,172,9,4920,940.9,558.1,FALSE,380.9,318.1
P1,63,62,Ht.png,Global,b,0,276,10,5118,1043.6,605.2,FALSE,483.6,365.2
P1,63,62,Ht.png,Global,b,0,88,11,5424,1220.1,601,FALSE,660.1,361
P1,63,62,Ht.png,Global,b,0,124,12,5806,808.9,563.3,FALSE,248.9,323.3
P1,63,62,Ht.png,Global,b,0,104,13,5958,696.6,561.1,FALSE,136.6,321.1
P1,64,63,Ht.png,Global,b,0,222,1,10,1227.9,567.1,FALSE,667.9,327.1
P1,64,63,Ht.png,Global,b,0,108,2,270,1036.8,589.6,FALSE,476.8,349.6
P1,64,63,Ht.png,Global,b,0,1234,3,402,961.7,583.8,FALSE,401.7,343.8
P1,64,63,Ht.png,Global,b,0,418,4,1692,746.4,1139,FALSE,186.4,899
P1,64,63,Ht.png,Global,b,0,226,5,2318,982.4,551.6,FALSE,422.4,311.6
P1,64,63,Ht.png,Global,b,0,202,6,2566,1038.5,581.5,FALSE,478.5,341.5
P1,65,64,Ll.png,None,n,0,156,1,458,971.5,455.5,FALSE,411.5,215.5
P1,65,64,Ll.png,None,n,0,84,2,630,986.9,489.5,FALSE,426.9,249.5
P1,65,64,Ll.png,None,n,0,48,3,1216,1019.4,496.1,FALSE,459.4,256.1
P1,65,64,Ll.png,None,n,0,78,4,1610,912.2,435,FALSE,352.2,195
P1,65,64,Ll.png,None,n,0,642,5,1704,933.9,487.6,FALSE,373.9,247.6
P1,65,64,Ll.png,None,n,0,168,6,2362,959.9,489.4,FALSE,399.9,249.4
P1,65,64,Ll.png,None,n,0,222,7,2554,926,442.5,FALSE,366,202.5
P1,65,64,Ll.png,None,n,0,126,8,2802,935.3,527.6,FALSE,375.3,287.6
P1,65,64,Ll.png,None,n,0,230,9,2988,1055,1124.2,FALSE,495,884.2
P1,65,64,Ll.png,None,n,0,26,10,3242,1113.9,1110.3,FALSE,553.9,870.3
P1,65,64,Ll.png,None,n,0,64,11,3456,924.6,1150.4,FALSE,364.6,910.4
P1,65,64,Ll.png,None,n,0,22,12,3580,942.5,572.8,FALSE,382.5,332.8
P1,65,64,Ll.png,None,n,0,132,13,3624,944.4,695.4,FALSE,384.4,455.4
P1,65,64,Ll.png,None,n,0,142,14,3790,929.5,567,FALSE,369.5,327
P1,65,64,Ll.png,None,n,0,126,15,3962,1022.9,590.5,FALSE,462.9,350.5
P1,65,64,Ll.png,None,n,0,130,16,4108,1068.1,627,FALSE,508.1,387
P1,66,65,Sh.png,Local,b,0,78,1,314,1079.1,559.3,FALSE,519.1,319.3
P1,66,65,Sh.png,Local,b,0,192,2,420,973.1,636.1,FALSE,413.1,396.1
P1,66,65,Sh.png,Local,b,0,216,3,916,967.4,584.7,FALSE,407.4,344.7
P1,66,65,Sh.png,Local,b,0,198,4,1148,1006.8,663.8,FALSE,446.8,423.8
P1,66,65,Sh.png,Local,b,0,32,5,1584,997.9,672.9,FALSE,437.9,432.9
P1,66,65,Sh.png,Local,b,0,50,6,1634,992.1,620.7,FALSE,432.1,380.7
P1,66,65,Sh.png,Local,b,0,22,7,1700,989.7,629,FALSE,429.7,389
P1,66,65,Sh.png,Local,b,0,76,8,1764,995.7,621,FALSE,435.7,381
P1,66,65,Sh.png,Local,b,0,120,9,1912,1000,615.4,FALSE,440,375.4
P1,66,65,Sh.png,Local,b,0,198,10,2324,1030,592.6,FALSE,470,352.6
P1,66,65,Sh.png,Local,b,0,90,11,2540,1035.8,646.7,FALSE,475.8,406.7
P1,66,65,Sh.png,Local,b,0,56,12,4396,1169.2,442.7,FALSE,609.2,202.7
P1,66,65,Sh.png,Local,b,0,64,13,4482,1165.2,232.6,FALSE,605.2,-7.4
P1,66,65,Sh.png,Local,b,0,36,14,4632,1100.4,-134.8,FALSE,540.4,-374.8
P1,67,66,Sh.png,Local,b,0,32,1,4046,1097.6,444.3,FALSE,537.6,204.3
P1,67,66,Sh.png,Local,b,0,22,2,4182,1077.3,738.9,FALSE,517.3,498.9
P1,67,66,Sh.png,Local,b,0,82,3,5448,986.9,707.3,FALSE,426.9,467.3
P1,67,66,Sh.png,Local,b,0,74,4,5990,1139.7,554.1,FALSE,579.7,314.1
P1,68,67,Sh.png,Local,b,0,198,1,10,911.7,510,FALSE,351.7,270
P1,68,67,Sh.png,Local,b,0,610,2,236,1003.1,565.1,FALSE,443.1,325.1
P1,68,67,Sh.png,Local,b,0,226,3,998,1034.6,590.7,FALSE,474.6,350.7
P1,68,67,Sh.png,Local,b,0,218,4,1244,966.1,570.5,FALSE,406.1,330.5
P1,68,67,Sh.png,Local,b,0,296,5,1528,721.9,1139.9,FALSE,161.9,899.9
P1,68,67,Sh.png,Local,b,0,172,6,1846,672.3,1131.5,FALSE,112.3,891.5
P1,68,67,Sh.png,Local,b,0,160,7,2086,1038.5,621.9,FALSE,478.5,381.9
P1,68,67,Sh.png,Local,b,0,178,8,2280,1022.1,490.9,FALSE,462.1,250.9
P1,68,67,Sh.png,Local,b,0,66,9,2478,1011.2,533.1,FALSE,451.2,293.1
P1,69,68,Th.png,Local,b,0,22,1,232,1060.3,635.6,FALSE,500.3,395.6
P1,69,68,Th.png,Local,b,0,88,2,534,1032.5,535,FALSE,472.5,295
P1,69,68,Th.png,Local,b,0,100,3,910,970.3,484.9,FALSE,410.3,244.9
P1,69,68,Th.png,Local,b,0,184,4,1030,1012.7,535.1,FALSE,452.7,295.1
P1,69,68,Th.png,Local,b,0,164,5,1430,933.8,380,FALSE,373.8,140
P1,69,68,Th.png,Local,b,0,160,6,1616,980.6,449.9,FALSE,420.6,209.9
P1,69,68,Th.png,Local,b,0,346,7,2010,929.7,392.7,FALSE,369.7,152.7
P1,69,68,Th.png,Local,b,0,588,8,2570,992.3,510.9,FALSE,432.3,270.9
P1,69,68,Th.png,Local,b,0,194,9,3342,1079.3,848.2,FALSE,519.3,608.2
P1,69,68,Th.png,Local,b,0,74,10,3554,1044.1,427.3,FALSE,484.1,187.3
P1,69,68,Th.png,Local,b,0,200,11,3654,1018.2,516.5,FALSE,458.2,276.5
P1,69,68,Th.png,Local,b,0,70,12,4150,996.8,475.5,FALSE,436.8,235.5
P1,69,68,Th.png,Local,b,0,174,13,4264,754.6,558.5,FALSE,194.6,318.5
P1,69,68,Th.png,Local,b,0,46,14,4486,1059.2,561.9,FALSE,499.2,321.9
P1,69,68,Th.png,Local,b,0,160,15,4568,1238.9,528.4,FALSE,678.9,288.4
P1,69,68,Th.png,Local,b,0,186,16,4748,1285.1,527.7,FALSE,725.1,287.7
P1,69,68,Th.png,Local,b,0,182,17,4978,1010.3,558.2,FALSE,450.3,318.2
P1,69,68,Th.png,Local,b,0,104,18,5444,798.1,567.3,FALSE,238.1,327.3
P1,69,68,Th.png,Local,b,0,102,19,5584,968.9,569.4,FALSE,408.9,329.4
P1,69,68,Th.png,Local,b,0,110,20,5716,1128.9,548.9,FALSE,568.9,308.9
P1,69,68,Th.png,Local,b,0,212,21,5852,1225.8,542.5,FALSE,665.8,302.5
P1,70,69,Th.png,Local,b,0,38,1,10,1148,570.6,FALSE,588,330.6
P1,70,69,Th.png,Local,b,0,154,2,158,1091.3,553.7,FALSE,531.3,313.7
P1,70,69,Th.png,Local,b,0,414,3,342,997.7,575.2,FALSE,437.7,335.2
P1,70,69,Th.png,Local,b,0,336,4,1036,1020.5,500.4,FALSE,460.5,260.4
P1,70,69,Th.png,Local,b,0,130,5,1598,-354.9,-493.6,FALSE,-914.9,-733.6
P1,70,69,Th.png,Local,b,0,86,6,1798,848.9,403.3,FALSE,288.9,163.3
P1,70,69,Th.png,Local,b,0,384,7,1920,1009.6,524,FALSE,449.6,284
P1,70,69,Th.png,Local,b,0,204,8,2542,1001,553.6,FALSE,441,313.6
P1,70,69,Th.png,Local,b,0,86,9,3066,990.1,587.7,FALSE,430.1,347.7
P1,70,69,Th.png,Local,b,0,168,10,3172,967.2,531.4,FALSE,407.2,291.4
P1,70,69,Th.png,Local,b,0,180,11,3356,997.2,530.7,FALSE,437.2,290.7
P1,70,69,Th.png,Local,b,0,112,12,3850,951.5,443.8,FALSE,391.5,203.8
P1,70,69,Th.png,Local,b,0,262,13,3982,1003.5,468.7,FALSE,443.5,228.7
P1,70,69,Th.png,Local,b,0,174,14,4282,797.6,494.4,FALSE,237.6,254.4
P1,70,69,Th.png,Local,b,0,88,15,4484,895.8,500.9,FALSE,335.8,260.9
P1,70,69,Th.png,Local,b,0,68,16,4876,1098.5,360,FALSE,538.5,120
P1,70,69,Th.png,Local,b,0,264,17,4976,1266.7,457.8,FALSE,706.7,217.8
P1,70,69,Th.png,Local,b,0,156,18,5270,1132.4,546.3,FALSE,572.4,306.3
P1,70,69,Th.png,Local,b,0,152,19,5730,944.3,530.9,FALSE,384.3,290.9
P1,70,69,Th.png,Local,b,0,114,20,5920,1171.6,533.9,FALSE,611.6,293.9
P1,71,70,Th.png,Local,b,0,66,1,10,1234.1,1005.8,FALSE,674.1,765.8
P1,71,70,Th.png,Local,b,0,108,2,120,862.7,1048.3,FALSE,302.7,808.3
P1,71,70,Th.png,Local,b,0,218,3,386,1034.4,658.1,FALSE,474.4,418.1
P1,71,70,Th.png,Local,b,0,172,4,620,1028.6,616.4,FALSE,468.6,376.4
P1,71,70,Th.png,Local,b,0,92,5,844,1388.4,930.8,FALSE,828.4,690.8
P1,71,70,Th.png,Local,b,0,200,6,962,1490,952.6,FALSE,930,712.6
P1,71,70,Th.png,Local,b,0,110,7,1378,1015.1,691.4,FALSE,455.1,451.4
P1,71,70,Th.png,Local,b,0,616,8,1504,1008.2,648,FALSE,448.2,408
P1,71,70,Th.png,Local,b,0,562,9,2340,1004.7,618.9,FALSE,444.7,378.9
P1,71,70,Th.png,Local,b,0,142,10,3060,955.9,634.2,FALSE,395.9,394.2
P1,71,70,Th.png,Local,b,0,134,11,3220,999.5,647.3,FALSE,439.5,407.3
P1,71,70,Th.png,Local,b,0,148,12,3404,1371.7,895.5,FALSE,811.7,655.5
P1,71,70,Th.png,Local,b,0,160,13,3606,1062.2,597.5,FALSE,502.2,357.5
P1,71,70,Th.png,Local,b,0,330,14,3784,1035.5,617.6,FALSE,475.5,377.6
P1,71,70,Th.png,Local,b,0,280,15,4290,992.5,658.1,FALSE,432.5,418.1
P1,71,70,Th.png,Local,b,0,128,16,4586,1047.9,618.8,FALSE,487.9,378.8
P1,71,70,Th.png,Local,b,0,272,17,4748,1235.8,605.4,FALSE,675.8,365.4
P1,71,70,Th.png,Local,b,0,172,18,5228,1015.9,595.3,FALSE,455.9,355.3
P1,71,70,Th.png,Local,b,0,194,19,5434,812,601.3,FALSE,252,361.3
P1,71,70,Th.png,Local,b,0,96,20,5678,1151.7,620.8,FALSE,591.7,380.8
P1,71,70,Th.png,Local,b,0,204,21,5800,1251.8,615.7,FALSE,691.8,375.7
P1,71,70,Th.png,Local,b,0,50,22,6024,1296.4,608.4,FALSE,736.4,368.4
P1,72,71,Th.png,Local,b,0,82,1,10,1388.2,937.1,FALSE,828.2,697.1
P1,72,71,Th.png,Local,b,0,154,2,118,1494.6,946.4,FALSE,934.6,706.4
P1,72,71,Th.png,Local,b,0,104,3,322,1106.6,679,FALSE,546.6,439
P1,72,71,Th.png,Local,b,0,156,4,454,1018.7,630.1,FALSE,458.7,390.1
P1,72,71,Th.png,Local,b,0,88,5,628,988,605.5,FALSE,428,365.5
P1,72,71,Th.png,Local,b,0,160,6,968,956.4,545.9,FALSE,396.4,305.9
P1,72,71,Th.png,Local,b,0,126,7,1148,1006.3,575.8,FALSE,446.3,335.8
P1,72,71,Th.png,Local,b,0,130,8,1328,1447.8,873.4,FALSE,887.8,633.4
P1,72,71,Th.png,Local,b,0,780,9,1514,988.8,644,FALSE,428.8,404
P1,72,71,Th.png,Local,b,0,146,10,2486,994.7,633,FALSE,434.7,393
P1,72,71,Th.png,Local,b,0,142,11,2856,1005.9,598.8,FALSE,445.9,358.8
P1,72,71,Th.png,Local,b,0,122,12,3236,1056.2,593.5,FALSE,496.2,353.5
P1,72,71,Th.png,Local,b,0,248,13,3378,1013.8,619.7,FALSE,453.8,379.7
P1,72,71,Th.png,Local,b,0,96,14,3672,1299.6,772.6,FALSE,739.6,532.6
P1,72,71,Th.png,Local,b,0,170,15,3812,1019.8,643.1,FALSE,459.8,403.1
P1,72,71,Th.png,Local,b,0,126,16,4036,1463,958.8,FALSE,903,718.8
P1,72,71,Th.png,Local,b,0,196,17,4288,1044.8,659.7,FALSE,484.8,419.7
P1,72,71,Th.png,Local,b,0,164,18,4510,955.5,636.5,FALSE,395.5,396.5
P1,72,71,Th.png,Local,b,0,170,19,4702,794,619,FALSE,234,379
P1,72,71,Th.png,Local,b,0,198,20,4894,715.7,620,FALSE,155.7,380
P1,72,71,Th.png,Local,b,0,54,21,5114,777.8,617,FALSE,217.8,377
P1,72,71,Th.png,Local,b,0,68,22,5200,974.8,606.6,FALSE,414.8,366.6
P1,72,71,Th.png,Local,b,0,194,23,5306,1185.8,590.9,FALSE,625.8,350.9
P1,72,71,Th.png,Local,b,0,508,24,5522,1286.1,582,FALSE,726.1,342
P1,73,72,Th.png,Local,b,0,266,1,10,982.9,584.5,FALSE,422.9,344.5
P1,73,72,Th.png,Local,b,0,148,2,294,1008,602.3,FALSE,448,362.3
P1,73,72,Th.png,Local,b,0,134,3,732,982.7,548,FALSE,422.7,308
P1,73,72,Th.png,Local,b,0,410,4,884,994.5,584.2,FALSE,434.5,344.2
P1,73,72,Th.png,Local,b,0,520,5,1530,990.7,575.9,FALSE,430.7,335.9
P1,73,72,Th.png,Local,b,0,22,6,2258,1770.9,306.3,FALSE,1210.9,66.3
P1,73,72,Th.png,Local,b,0,200,7,2340,1063.1,515.3,FALSE,503.1,275.3
P1,73,72,Th.png,Local,b,0,208,8,2560,989.3,476.3,FALSE,429.3,236.3
P1,73,72,Th.png,Local,b,0,200,9,2824,815.5,1103.2,FALSE,255.5,863.2
P1,73,72,Th.png,Local,b,0,132,10,3054,950.4,1130,FALSE,390.4,890
P1,73,72,Th.png,Local,b,0,188,11,3248,964.7,595,FALSE,404.7,355
P1,73,72,Th.png,Local,b,0,330,12,3466,983.7,474.4,FALSE,423.7,234.4
P1,73,72,Th.png,Local,b,0,282,13,3826,1023,608.7,FALSE,463,368.7
P1,74,73,Ol.png,Global,b,0,328,1,10,1029,581.6,FALSE,469,341.6
P1,74,73,Ol.png,Global,b,0,238,2,356,998.9,554.2,FALSE,438.9,314.2
P1,74,73,Ol.png,Global,b,0,116,3,810,811.5,348.6,FALSE,251.5,108.6
P1,74,73,Ol.png,Global,b,0,170,4,962,959.5,532.8,FALSE,399.5,292.8
P1,74,73,Ol.png,Global,b,0,176,5,1156,995.7,578.8,FALSE,435.7,338.8
P1,74,73,Ol.png,Global,b,0,66,6,1498,-299.6,-621.9,FALSE,-859.6,-861.9
P1,74,73,Ol.png,Global,b,0,28,7,2736,871.3,409.8,FALSE,311.3,169.8
P1,74,73,Ol.png,Global,b,0,790,8,2800,991.3,581.7,FALSE,431.3,341.7
P1,74,73,Ol.png,Global,b,0,218,9,3612,985.8,537.8,FALSE,425.8,297.8
P1,74,73,Ol.png,Global,b,0,170,10,3862,981.9,656.5,FALSE,421.9,416.5
P1,74,73,Ol.png,Global,b,0,232,11,4088,690.1,1105.2,FALSE,130.1,865.2
P1,74,73,Ol.png,Global,b,0,116,12,4352,568,1085.5,FALSE,8,845.5
P1,74,73,Ol.png,Global,b,0,74,13,4498,679.6,1104.7,FALSE,119.6,864.7
P1,74,73,Ol.png,Global,b,0,216,14,4598,765,1116.3,FALSE,205,876.3
P1,74,73,Ol.png,Global,b,0,258,15,4872,1008.5,656.8,FALSE,448.5,416.8
P1,74,73,Ol.png,Global,b,0,486,16,5166,983.1,473.7,FALSE,423.1,233.7
P1,74,73,Ol.png,Global,b,0,112,17,5676,959.1,566.2,FALSE,399.1,326.2
P1,74,73,Ol.png,Global,b,0,190,18,5816,1063,598.1,FALSE,503,358.1
P1,75,74,St.png,None,n,0,370,1,16,884,1125.6,FALSE,324,885.6
P1,75,74,St.png,None,n,0,418,2,598,1022.6,620.8,FALSE,462.6,380.8
P1,75,74,St.png,None,n,0,160,3,1032,1031.7,580.6,FALSE,471.7,340.6
P1,75,74,St.png,None,n,0,214,4,2152,992.3,609.1,FALSE,432.3,369.1
P1,75,74,St.png,None,n,0,180,5,2384,1012.4,579.4,FALSE,452.4,339.4
P1,75,74,St.png,None,n,0,572,6,2876,1006.3,527.6,FALSE,446.3,287.6
P1,75,74,St.png,None,n,0,756,7,3672,974.2,480.5,FALSE,414.2,240.5
P1,75,74,St.png,None,n,0,108,8,4454,1037.9,547.6,FALSE,477.9,307.6
P1,76,75,Ts.png,None,n,0,236,1,10,1086.7,543.4,FALSE,526.7,303.4
P1,76,75,Ts.png,None,n,0,92,2,262,1049.4,556.9,FALSE,489.4,316.9
P1,76,75,Ts.png,None,n,0,122,3,576,109.8,-265.4,FALSE,-450.2,-505.4
P1,76,75,Ts.png,None,n,0,130,4,742,-298.9,-663.7,FALSE,-858.9,-903.7
P1,76,75,Ts.png,None,n,0,128,5,936,924.4,587.9,FALSE,364.4,347.9
P1,76,75,Ts.png,None,n,0,362,6,1090,1017.2,561.7,FALSE,457.2,321.7
P1,76,75,Ts.png,None,n,0,64,7,1698,1013.7,492.4,FALSE,453.7,252.4
P1,76,75,Ts.png,None,n,0,220,8,1782,1030,545.2,FALSE,470,305.2
P1,76,75,Ts.png,None,n,0,176,9,2270,987.1,587.4,FALSE,427.1,347.4
P1,76,75,Ts.png,None,n,0,294,10,2500,728,1116.6,FALSE,168,876.6
P1,76,75,Ts.png,None,n,0,198,11,3080,1010.3,595.3,FALSE,450.3,355.3
P1,76,75,Ts.png,None,n,0,290,12,3296,1012.1,546.7,FALSE,452.1,306.7
P1,76,75,Ts.png,None,n,0,368,13,3878,1005.7,546.9,FALSE,445.7,306.9
P1,76,75,Ts.png,None,n,0,166,14,4282,824.4,566.9,FALSE,264.4,326.9
P1,76,75,Ts.png,None,n,0,98,15,4474,926.7,568.1,FALSE,366.7,328.1
P1,76,75,Ts.png,None,n,0,116,16,4892,976.4,543.6,FALSE,416.4,303.6
P1,76,75,Ts.png,None,n,0,528,17,5038,1117.3,546.9,FALSE,557.3,306.9
P1,76,75,Ts.png,None,n,0,124,18,5604,827.8,559.2,FALSE,267.8,319.2
P1,76,75,Ts.png,None,n,0,146,19,5918,726.2,530.9,FALSE,166.2,290.9
P1,77,76,Ts.png,None,n,0,70,1,10,1085.5,543.6,FALSE,525.5,303.6
P1,77,76,Ts.png,None,n,0,38,2,288,868.7,570.9,FALSE,308.7,330.9
P1,77,76,Ts.png,None,n,0,708,3,352,985.8,529.8,FALSE,425.8,289.8
P1,77,76,Ts.png,None,n,0,572,4,1082,986.8,427.9,FALSE,426.8,187.9
P1,77,76,Ts.png,None,n,0,318,5,1686,1027.6,533.7,FALSE,467.6,293.7
P1,78,77,Uu.png,None,n,0,16,1,10,1064.1,531.6,FALSE,504.1,291.6
P1,78,77,Uu.png,None,n,0,460,2,254,1017.7,519.9,FALSE,457.7,279.9
P1,78,77,Uu.png,None,n,0,436,3,932,990.8,533.7,FALSE,430.8,293.7
P1,78,77,Uu.png,None,n,0,138,4,1606,960.5,465.8,FALSE,400.5,225.8
P1,78,77,Uu.png,None,n,0,936,5,1954,1008.2,522.6,FALSE,448.2,282.6
P1,78,77,Uu.png,None,n,0,242,6,2912,988.9,589.7,FALSE,428.9,349.7
P1,78,77,Uu.png,None,n,0,228,7,3174,975.4,551.8,FALSE,415.4,311.8
P1,78,77,Uu.png,None,n,0,238,8,3422,970.3,525.3,FALSE,410.3,285.3
P1,78,77,Uu.png,None,n,0,270,9,3678,956.9,483,FALSE,396.9,243
P1,78,77,Uu.png,None,n,0,218,10,3974,1007.2,581.8,FALSE,447.2,341.8
P1,78,77,Uu.png,None,n,0,186,11,4212,1010.5,635.3,FALSE,450.5,395.3
P1,78,77,Uu.png,None,n,0,244,12,4426,975.4,527,FALSE,415.4,287
P1,78,77,Uu.png,None,n,0,192,13,4698,1001,656.5,FALSE,441,416.5
P1,78,77,Uu.png,None,n,0,114,14,4908,1027.7,703.4,FALSE,467.7,463.4
P1,78,77,Uu.png,None,n,0,162,15,5234,1027.4,664.2,FALSE,467.4,424.2
P1,78,77,Uu.png,None,n,0,360,16,5422,976.8,550.4,FALSE,416.8,310.4
P1,78,77,Uu.png,None,n,0,782,17,6052,1007.4,594.4,FALSE,447.4,354.4
P1,78,77,Uu.png,None,n,0,168,18,6858,1075.1,566.2,FALSE,515.1,326.2
P1,79,78,St.png,None,n,0,398,1,10,1002.1,597.8,FALSE,442.1,357.8
P1,79,78,St.png,None,n,0,538,2,760,1020.5,562.9,FALSE,460.5,322.9
P1,79,78,St.png,None,n,0,630,3,1558,977.8,506.1,FALSE,417.8,266.1
P1,79,78,St.png,None,n,0,96,4,2212,1036.1,521.9,FALSE,476.1,281.9
P1,80,79,Lu.png,None,n,0,88,1,10,1107.6,597.2,FALSE,547.6,357.2
P1,80,79,Lu.png,None,n,0,174,2,120,1050.5,622.4,FALSE,490.5,382.4
P1,80,79,Lu.png,None,n,0,102,3,348,1384.5,931.6,FALSE,824.5,691.6
P1,80,79,Lu.png,None,n,0,292,4,470,1401,993.3,FALSE,841,753.3
P1,80,79,Lu.png,None,n,0,282,5,996,1020.7,582.5,FALSE,460.7,342.5
P1,80,79,Lu.png,None,n,0,288,6,1506,1030,563.1,FALSE,470,323.1
P1,80,79,Lu.png,None,n,0,584,7,1812,1017.9,594.6,FALSE,457.9,354.6
P1,80,79,Lu.png,None,n,0,120,8,2684,1020.4,549,FALSE,460.4,309
P1,80,79,Lu.png,None,n,0,178,9,2826,1042.2,575.2,FALSE,482.2,335.2
P1,80,79,Lu.png,None,n,0,100,10,3326,972.4,542.6,FALSE,412.4,302.6
P1,80,79,Lu.png,None,n,0,198,11,3448,1011.8,547.4,FALSE,451.8,307.4
P1,80,79,Lu.png,None,n,0,358,12,3910,1021.3,533,FALSE,461.3,293
P1,80,79,Lu.png,None,n,0,186,13,4296,958.1,581.7,FALSE,398.1,341.7
P1,80,79,Lu.png,None,n,0,292,14,4500,985.3,595.7,FALSE,425.3,355.7
P1,80,79,Lu.png,None,n,0,52,15,5324,924.2,514,FALSE,364.2,274
P1,80,79,Lu.png,None,n,0,228,16,5410,731,540.3,FALSE,171,300.3
P1,80,79,Lu.png,None,n,0,214,17,5654,680.8,517.3,FALSE,120.8,277.3
P1,80,79,Lu.png,None,n,0,50,18,5898,860.4,546.1,FALSE,300.4,306.1
P1,80,79,Lu.png,None,n,0,74,19,6000,1188.6,521.5,FALSE,628.6,281.5
P1,81,80,Lu.png,None,n,0,212,1,10,737.7,539.6,FALSE,177.7,299.6
P1,81,80,Lu.png,None,n,0,174,2,266,1037.5,532.8,FALSE,477.5,292.8
P1,81,80,Lu.png,None,n,0,78,3,714,1012.6,495,FALSE,452.6,255
P1,81,80,Lu.png,None,n,0,528,4,816,1028.9,556.1,FALSE,468.9,316.1
P1,81,80,Lu.png,None,n,0,138,5,1640,990.1,525.7,FALSE,430.1,285.7
P1,81,80,Lu.png,None,n,0,736,6,1796,1015.8,542.3,FALSE,455.8,302.3
P1,81,80,Lu.png,None,n,0,526,7,2552,964.1,561.7,FALSE,404.1,321.7
P1,81,80,Lu.png,None,n,0,620,8,3106,1004.7,630.7,FALSE,444.7,390.7
P1,82,81,Sh.png,Local,b,0,260,1,188,1069.2,554.5,FALSE,509.2,314.5
P1,82,81,Sh.png,Local,b,0,48,2,674,982.2,1094.9,FALSE,422.2,854.9
P1,82,81,Sh.png,Local,b,0,126,3,1012,-25,-409.9,FALSE,-585,-649.9
P1,82,81,Sh.png,Local,b,0,270,4,1404,1006,507.1,FALSE,446,267.1
P1,82,81,Sh.png,Local,b,0,46,5,1930,1027.1,1056.6,FALSE,467.1,816.6
P1,82,81,Sh.png,Local,b,0,132,6,2354,983.2,482.6,FALSE,423.2,242.6
P1,82,81,Sh.png,Local,b,0,766,7,2510,1015.4,539,FALSE,455.4,299
P1,82,81,Sh.png,Local,b,0,642,8,3294,985.8,508.5,FALSE,425.8,268.5
P1,82,81,Sh.png,Local,b,0,240,9,3962,1031.5,550.3,FALSE,471.5,310.3
P1,82,81,Sh.png,Local,b,0,52,10,4218,1054.7,561.5,FALSE,494.7,321.5
P1,2,1,Uu.png,None,n,0,148,1,30,10.6,-17.2,FALSE,-549.4,-257.2
P1,2,1,Uu.png,None,n,0,188,2,240,1001,515.1,FALSE,441,275.1
P1,2,1,Uu.png,None,n,0,1506,3,450,1025.2,573.4,FALSE,465.2,333.4
P1,2,1,Uu.png,None,n,0,168,4,1974,996.4,524.2,FALSE,436.4,284.2
P1,2,1,Uu.png,None,n,0,324,5,2176,989.7,695.4,FALSE,429.7,455.4
P1,2,1,Uu.png,None,n,0,484,6,2540,961.7,482.4,FALSE,401.7,242.4
P1,2,1,Uu.png,None,n,0,198,7,3084,859.9,1146.4,FALSE,299.9,906.4
P1,2,1,Uu.png,None,n,0,258,8,3350,989,552.1,FALSE,429,312.1
P1,2,1,Uu.png,None,n,0,156,9,3636,969.8,663,FALSE,409.8,423
P1,2,1,Uu.png,None,n,0,216,10,3814,1008.9,721,FALSE,448.9,481
P1,2,1,Uu.png,None,n,0,178,11,4066,962.2,555.2,FALSE,402.2,315.2
P1,2,1,Uu.png,None,n,0,1660,12,4266,922.1,477.1,FALSE,362.1,237.1
P1,2,1,Uu.png,None,n,0,282,13,5948,918.4,537.7,FALSE,358.4,297.7
P1,3,2,Ou.png,Global,b,0,110,1,10,928.6,547.2,FALSE,368.6,307.2
P1,3,2,Ou.png,Global,b,0,728,2,144,979.1,536.7,FALSE,419.1,296.7
P1,3,2,Ou.png,Global,b,0,164,3,898,939.4,434.4,FALSE,379.4,194.4
P1,3,2,Ou.png,Global,b,0,182,4,1080,953.2,393.3,FALSE,393.2,153.3
P1,3,2,Ou.png,Global,b,0,144,5,1300,977.5,621.7,FALSE,417.5,381.7
P1,3,2,Ou.png,Global,b,0,196,6,1466,990.2,667.7,FALSE,430.2,427.7
P1,3,2,Ou.png,Global,b,0,608,7,1700,935.4,423.7,FALSE,375.4,183.7
P1,3,2,Ou.png,Global,b,0,308,8,2324,921.9,459.7,FALSE,361.9,219.7
P1,3,2,Ou.png,Global,b,0,158,9,2652,905.2,513.6,FALSE,345.2,273.6
P1,3,2,Ou.png,Global,b,0,138,10,2836,1017.5,514.8,FALSE,457.5,274.8
P1,4,3,Tt.png,None,n,0,208,1,10,945.1,576.7,FALSE,385.1,336.7
P1,4,3,Tt.png,None,n,0,910,2,242,1010.5,571.9,FALSE,450.5,331.9
P1,4,3,Tt.png,None,n,0,842,3,1178,978.5,426.3,FALSE,418.5,186.3
P1,4,3,Tt.png,None,n,0,360,4,2054,1004.7,559.3,FALSE,444.7,319.3
P1,4,3,Tt.png,None,n,0,250,5,2432,1004.2,509.8,FALSE,444.2,269.8
P1,4,3,Tt.png,None,n,0,254,6,2704,984.6,575,FALSE,424.6,335
P1,5,4,Uo.png,Local,b,0,1318,1,10,1016.4,585.7,FALSE,456.4,345.7
P1,5,4,Uo.png,Local,b,0,150,2,1354,1006,655,FALSE,446,415
P1,5,4,Uo.png,Local,b,0,204,3,1522,999.7,698,FALSE,439.7,458
P1,5,4,Uo.png,Local,b,0,230,4,1776,896.5,1144.6,FALSE,336.5,904.6
P1,5,4,Uo.png,Local,b,0,422,5,2030,817.9,1137,FALSE,257.9,897
P1,5,4,Uo.png,Local,b,0,434,6,2522,1011,499.1,FALSE,451,259.1
P1,5,4,Uo.png,Local,b,0,198,7,2976,991.7,538,FALSE,431.7,298
P1,5,4,Uo.png,Local,b,0,72,8,3192,1029.8,559.7,FALSE,469.8,319.7
P1,6,5,Tt.png,None,n,0,206,1,10,1066.3,615.7,FALSE,506.3,375.7
P1,6,5,Tt.png,None,n,0,1090,2,236,1004.5,596,FALSE,444.5,356
P1,6,5,Tt.png,None,n,0,62,3,1350,983.8,507.1,FALSE,423.8,267.1
P1,6,5,Tt.png,None,n,0,208,4,1430,968.9,450,FALSE,408.9,210
P1,6,5,Tt.png,None,n,0,286,5,1668,989.1,579.8,FALSE,429.1,339.8
P1,6,5,Tt.png,None,n,0,262,6,1980,986.3,478.3,FALSE,426.3,238.3
P1,6,5,Tt.png,None,n,0,182,7,2268,952.2,559.3,FALSE,392.2,319.3
P1,6,5,Tt.png,None,n,0,64,8,2476,1026.4,568.9,FALSE,466.4,328.9
P1,7,6,Ou.png,Global,b,0,784,1,10,1000.4,564.2,FALSE,440.4,324.2
P1,7,6,Ou.png,Global,b,0,818,2,816,965.6,531.1,FALSE,405.6,291.1
P1,7,6,Ou.png,Global,b,0,1240,3,1650,982.8,570.1,FALSE,422.8,330.1
P1,7,6,Ou.png,Global,b,0,290,4,2998,991.2,527.8,FALSE,431.2,287.8
P1,7,6,Ou.png,Global,b,0,240,5,3316,1032.9,622.2,FALSE,472.9,382.2
P1,7,6,Ou.png,Global,b,0,248,6,3576,1059.4,690.3,FALSE,499.4,450.3
P1,7,6,Ou.png,Global,b,0,184,7,3856,985.3,570.6,FALSE,425.3,330.6
P1,7,6,Ou.png,Global,b,0,502,8,4056,991.2,529.6,FALSE,431.2,289.6
P1,7,6,Ou.png,Global,b,0,224,9,4610,833.2,1104.7,FALSE,273.2,864.7
P1,7,6,Ou.png,Global,b,0,170,10,4896,959.5,613.9,FALSE,399.5,373.9
P1,8,7,Ul.png,None,n,0,256,1,10,1048.6,627.5,FALSE,488.6,387.5
P1,8,7,Ul.png,None,n,0,330,2,282,992.2,614.8,FALSE,432.2,374.8
P1,8,7,Ul.png,None,n,0,1124,3,628,1013.1,610.8,FALSE,453.1,370.8
P1,8,7,Ul.png,None,n,0,534,4,1780,1009,629.6,FALSE,449,389.6
P1,8,7,Ul.png,None,n,0,538,5,2550,1018,616,FALSE,458,376
P1,8,7,Ul.png,None,n,0,500,6,3266,1009.8,605.5,FALSE,449.8,365.5
P1,8,7,Ul.png,None,n,0,282,7,3976,1011.4,609.8,FALSE,451.4,369.8
P1,8,7,Ul.png,None,n,0,144,8,4292,840.3,617.6,FALSE,280.3,377.6
P1,8,7,Ul.png,None,n,0,164,9,4460,746.3,613.5,FALSE,186.3,373.5
P1,8,7,Ul.png,None,n,0,272,10,4660,914.7,608.9,FALSE,354.7,368.9
P1,8,7,Ul.png,None,n,0,162,11,4962,1075.2,590.6,FALSE,515.2,350.6
P1,8,7,Ul.png,None,n,0,220,12,5146,1150.7,581.9,FALSE,590.7,341.9
P1,8,7,Ul.png,None,n,0,84,13,5390,1241.6,580.6,FALSE,681.6,340.6
P1,8,7,Ul.png,None,n,0,194,14,5496,1308.3,566.1,FALSE,748.3,326.1
P1,8,7,Ul.png,None,n,0,352,15,5722,1150.2,577.6,FALSE,590.2,337.6
P1,9,8,Ul.png,None,n,0,12,1,10,1202.8,564.9,FALSE,642.8,324.9
P1,9,8,Ul.png,None,n,0,196,2,66,909.2,595.2,FALSE,349.2,355.2
P1,9,8,Ul.png,None,n,0,788,3,292,1020.1,583.2,FALSE,460.1,343.2
P1,9,8,Ul.png,None,n,0,216,4,1102,994,546,FALSE,434,306
P1,9,8,Ul.png,None,n,0,270,5,1350,1015,754.3,FALSE,455,514.3
P1,9,8,Ul.png,None,n,0,746,6,1678,801.9,1110.6,FALSE,241.9,870.6
P1,9,8,Ul.png,None,n,0,346,7,2496,981.9,629,FALSE,421.9,389
P1,9,8,Ul.png,None,n,0,250,8,2864,1041,621.7,FALSE,481,381.7
P1,10,9,Uo.png,Local,b,0,230,1,10,1086,631.4,FALSE,526,391.4
P1,10,9,Uo.png,Local,b,0,638,2,264,1013.7,636.7,FALSE,453.7,396.7
P1,10,9,Uo.png,Local,b,0,222,3,956,865.6,1105.1,FALSE,305.6,865.1
P1,10,9,Uo.png,Local,b,0,294,4,1242,999.4,592.9,FALSE,439.4,352.9
P1,10,9,Uo.png,Local,b,0,96,5,1556,1034.2,616,FALSE,474.2,376
P1,10,9,Uo.png,Local,b,0,920,6,1828,1020.4,579.1,FALSE,460.4,339.1
P1,10,9,Uo.png,Local,b,0,162,7,2768,1051.8,547.2,FALSE,491.8,307.2
P1,10,9,Uo.png,Local,b,0,314,8,2946,1021.3,537.8,FALSE,461.3,297.8
P1,10,9,Uo.png,Local,b,0,98,9,3474,957,592.3,FALSE,397,352.3
P1,10,9,Uo.png,Local,b,0,656,10,3596,1014.9,614.5,FALSE,454.9,374.5
P1,10,9,Uo.png,Local,b,0,106,11,4282,867.8,623.5,FALSE,307.8,383.5
P1,10,9,Uo.png,Local,b,0,176,12,4420,710.4,586.6,FALSE,150.4,346.6
P1,10,9,Uo.png,Local,b,0,204,13,4634,943.8,625.4,FALSE,383.8,385.4
P1,10,9,Uo.png,Local,b,0,240,14,4866,1107.4,601.8,FALSE,547.4,361.8
P1,10,9,Uo.png,Local,b,0,158,15,5132,1219.1,572.5,FALSE,659.1,332.5
P1,10,9,Uo.png,Local,b,0,302,16,5316,1306.1,549.4,FALSE,746.1,309.4
P1,10,9,Uo.png,Local,b,0,190,17,5722,668.7,1112.1,FALSE,108.7,872.1
P1,11,10,Uo.png,Local,b,0,192,1,10,1277.6,608.5,FALSE,717.6,368.5
P1,11,10,Uo.png,Local,b,0,328,2,240,1053.9,620.3,FALSE,493.9,380.3
P1,11,10,Uo.png,Local,b,0,152,3,620,926.8,1131.5,FALSE,366.8,891.5
P1,11,10,Uo.png,Local,b,0,162,4,798,844,1115.4,FALSE,284,875.4
P1,11,10,Uo.png,Local,b,0,48,5,988,988.4,1126.1,FALSE,428.4,886.1
P1,11,10,Uo.png,Local,b,0,132,6,1090,962.7,560.4,FALSE,402.7,320.4
P1,11,10,Uo.png,Local,b,0,626,7,1246,1032.6,581.2,FALSE,472.6,341.2
P1,11,10,Uo.png,Local,b,0,214,8,1902,1038.6,606.5,FALSE,478.6,366.5
P1,11,10,Uo.png,Local,b,0,158,9,2146,975.7,599.6,FALSE,415.7,359.6
P1,11,10,Uo.png,Local,b,0,470,10,2324,1015.8,615.8,FALSE,455.8,375.8
P1,11,10,Uo.png,Local,b,0,40,11,2810,995,635.5,FALSE,435,395.5
P1,11,10,Uo.png,Local,b,0,900,12,2956,1031.5,627.8,FALSE,471.5,387.8
P1,11,10,Uo.png,Local,b,0,216,13,4040,1001.7,591.9,FALSE,441.7,351.9
P1,11,10,Uo.png,Local,b,0,144,14,4288,899.2,631.9,FALSE,339.2,391.9
P1,11,10,Uo.png,Local,b,0,150,15,4486,1271.5,557.7,FALSE,711.5,317.7
P1,11,10,Uo.png,Local,b,0,166,16,4670,1100.3,583.7,FALSE,540.3,343.7
P1,11,10,Uo.png,Local,b,0,188,17,4858,1174.4,606.5,FALSE,614.4,366.5
P1,11,10,Uo.png,Local,b,0,136,18,5094,820.7,611.7,FALSE,260.7,371.7
P1,11,10,Uo.png,Local,b,0,174,19,5254,734.9,596,FALSE,174.9,356
P1,11,10,Uo.png,Local,b,0,180,20,5460,911.1,600.2,FALSE,351.1,360.2
P1,11,10,Uo.png,Local,b,0,166,21,5688,1201.1,578.6,FALSE,641.1,338.6
P1,11,10,Uo.png,Local,b,0,184,22,5880,1299.3,557,FALSE,739.3,317
P1,12,11,Uo.png,Local,b,0,1196,1,10,895.4,408.6,FALSE,335.4,168.6
P1,12,11,Uo.png,Local,b,0,520,2,1336,920.8,429.2,FALSE,360.8,189.2
P1,12,11,Uo.png,Local,b,0,798,3,2060,938.5,482.1,FALSE,378.5,242.1
P1,12,11,Uo.png,Local,b,0,122,4,2878,906.5,402.2,FALSE,346.5,162.2
P1,12,11,Uo.png,Local,b,0,114,5,3042,939.5,716.1,FALSE,379.5,476.1
P1,12,11,Uo.png,Local,b,0,200,6,3212,709.8,1141,FALSE,149.8,901
P1,12,11,Uo.png,Local,b,0,164,7,3438,581,1126.5,FALSE,21,886.5
P1,12,11,Uo.png,Local,b,0,112,8,3620,531.5,1117,FALSE,-28.5,877
P1,12,11,Uo.png,Local,b,0,408,9,3762,617.1,1129.9,FALSE,57.1,889.9
P1,12,11,Uo.png,Local,b,0,158,10,4240,933,733.4,FALSE,373,493.4
P1,12,11,Uo.png,Local,b,0,176,11,4436,889.2,467.2,FALSE,329.2,227.2
P1,12,11,Uo.png,Local,b,0,196,12,4632,831.7,510.7,FALSE,271.7,270.7
P1,13,12,Ht.png,Global,b,0,18,1,10,-40,-268.8,FALSE,-600,-508.8
P1,13,12,Ht.png,Global,b,0,86,2,134,925.1,454.1,FALSE,365.1,214.1
P1,13,12,Ht.png,Global,b,0,252,3,246,854,423.8,FALSE,294,183.8
P1,14,13,Ht.png,Global,b,0,252,1,1638,926,1153.6,FALSE,366,913.6
P1,14,13,Ht.png,Global,b,0,88,2,1960,1035.6,481.8,FALSE,475.6,241.8
P1,14,13,Ht.png,Global,b,0,378,3,2082,1035.8,338.5,FALSE,475.8,98.5
P1,15,14,Ht.png,Global,b,0,162,1,10,968.8,522.6,FALSE,408.8,282.6
P1,15,14,Ht.png,Global,b,0,284,2,200,1013.7,584.5,FALSE,453.7,344.5
P1,15,14,Ht.png,Global,b,0,176,3,546,840.1,1132.2,FALSE,280.1,892.2
P1,15,14,Ht.png,Global,b,0,1082,4,788,1013.7,578.7,FALSE,453.7,338.7
P1,15,14,Ht.png,Global,b,0,174,5,1894,993,647.9,FALSE,433,407.9
P1,15,14,Ht.png,Global,b,0,606,6,2128,859.9,1124,FALSE,299.9,884
P1,15,14,Ht.png,Global,b,0,264,7,2764,732.3,1119.8,FALSE,172.3,879.8
P1,15,14,Ht.png,Global,b,0,144,8,3096,1019.6,691.1,FALSE,459.6,451.1
P1,15,14,Ht.png,Global,b,0,252,9,3274,1019.1,533.1,FALSE,459.1,293.1
P1,15,14,Ht.png,Global,b,0,208,10,3546,1007.6,601.5,FALSE,447.6,361.5
P1,16,15,Ss.png,None,n,0,4,1,22,159.7,269.2,FALSE,-400.3,29.2
P1,16,15,Ss.png,None,n,0,200,2,288,1019,652.9,FALSE,459,412.9
P1,16,15,Ss.png,None,n,0,194,3,606,986.8,610.1,FALSE,426.8,370.1
P1,16,15,Ss.png,None,n,0,1750,4,820,1014.8,596.2,FALSE,454.8,356.2
P1,16,15,Ss.png,None,n,0,136,5,2648,630.9,1114.3,FALSE,70.9,874.3
P1,16,15,Ss.png,None,n,0,90,6,2812,519.5,1090.5,FALSE,-40.5,850.5
P1,16,15,Ss.png,None,n,0,116,7,2968,943.5,748.6,FALSE,383.5,508.6
P1,16,15,Ss.png,None,n,0,666,8,3120,978.2,554.1,FALSE,418.2,314.1
P1,16,15,Ss.png,None,n,0,96,9,3806,1001.8,490.5,FALSE,441.8,250.5
P1,16,15,Ss.png,None,n,0,302,10,3962,593.4,1113.9,FALSE,33.4,873.9
P1,16,15,Ss.png,None,n,0,84,11,4314,1014.4,946.8,FALSE,454.4,706.8
P1,16,15,Ss.png,None,n,0,200,12,4450,1024.6,512.8,FALSE,464.6,272.8
P1,16,15,Ss.png,None,n,0,332,13,4668,1011.1,469.4,FALSE,451.1,229.4
P1,16,15,Ss.png,None,n,0,148,14,5026,984.4,585,FALSE,424.4,345
P1,16,15,Ss.png,None,n,0,154,15,5196,1058.6,596.1,FALSE,498.6,356.1
P1,17,16,Hs.png,Global,b,0,438,1,10,987.3,531.1,FALSE,427.3,291.1
P1,17,16,Hs.png,Global,b,0,26,2,704,923.6,1094.9,FALSE,363.6,854.9
P1,17,16,Hs.png,Global,b,0,920,3,834,922.4,485.8,FALSE,362.4,245.8
P1,17,16,Hs.png,Global,b,0,140,4,1784,867.5,304.9,FALSE,307.5,64.9
P1,17,16,Hs.png,Global,b,0,146,5,1984,956.1,1151,FALSE,396.1,911
P1,17,16,Hs.png,Global,b,0,152,6,2146,941.5,1150.2,FALSE,381.5,910.2
P1,17,16,Hs.png,Global,b,0,58,7,2318,890.1,1158,FALSE,330.1,918
P1,17,16,Hs.png,Global,b,0,468,8,2392,876.1,1154.8,FALSE,316.1,914.8
P1,17,16,Hs.png,Global,b,0,226,9,2888,784.7,1146.3,FALSE,224.7,906.3
P1,17,16,Hs.png,Global,b,0,244,10,3194,1000,333.1,FALSE,440,93.1
P1,17,16,Hs.png,Global,b,0,322,11,3458,989.8,324,FALSE,429.8,84
P1,17,16,Hs.png,Global,b,0,220,12,3812,1022.9,468.3,FALSE,462.9,228.3
P1,18,17,Ol.png,Global,b,0,240,1,10,1098,573.5,FALSE,538,333.5
P1,18,17,Ol.png,Global,b,0,400,2,276,1026.6,553.4,FALSE,466.6,313.4
P1,18,17,Ol.png,Global,b,0,42,3,836,1035.1,1052.3,FALSE,475.1,812.3
P1,18,17,Ol.png,Global,b,0,938,4,908,1032,587.7,FALSE,472,347.7
P1,18,17,Ol.png,Global,b,0,786,5,2038,1015.6,565.5,FALSE,455.6,325.5
P1,18,17,Ol.png,Global,b,0,674,6,2844,969.2,447.6,FALSE,409.2,207.6
P1,18,17,Ol.png,Global,b,0,394,7,3576,903.2,1152.8,FALSE,343.2,912.8
P1,18,17,Ol.png,Global,b,0,442,8,3990,873.4,1144.7,FALSE,313.4,904.7
P1,18,17,Ol.png,Global,b,0,558,9,4498,1065.9,534.8,FALSE,505.9,294.8
P1,19,18,Th.png,Local,b,0,18,1,10,164.3,104.3,FALSE,-395.7,-135.7
P1,19,18,Th.png,Local,b,0,244,2,132,986,587.5,FALSE,426,347.5
P1,19,18,Th.png,Local,b,0,226,3,440,726.9,1122.6,FALSE,166.9,882.6
P1,19,18,Th.png,Local,b,0,374,4,736,1004.8,544.3,FALSE,444.8,304.3
P1,19,18,Th.png,Local,b,0,426,5,1238,990.9,547.2,FALSE,430.9,307.2
P1,19,18,Th.png,Local,b,0,166,6,1822,952.1,457.1,FALSE,392.1,217.1
P1,19,18,Th.png,Local,b,0,732,7,2008,992.3,518.3,FALSE,432.3,278.3
P1,19,18,Th.png,Local,b,0,140,8,2770,988.1,453.3,FALSE,428.1,213.3
P1,19,18,Th.png,Local,b,0,188,9,2970,674,1128.4,FALSE,114,888.4
P1,19,18,Th.png,Local,b,0,144,10,3186,526.4,1107.2,FALSE,-33.6,867.2
P1,19,18,Th.png,Local,b,0,330,11,3364,664,1133.7,FALSE,104,893.7
P1,19,18,Th.png,Local,b,0,294,12,3774,970,468.3,FALSE,410,228.3
P1,19,18,Th.png,Local,b,0,176,13,4094,923.7,539,FALSE,363.7,299
P1,19,18,Th.png,Local,b,0,88,14,4288,951.3,522.3,FALSE,391.3,282.3
P1,20,19,Ou.png,Global,b,0,24,1,10,939.5,564.5,FALSE,379.5,324.5
P1,20,19,Ou.png,Global,b,0,978,2,62,1018.6,549.2,FALSE,458.6,309.2
P1,20,19,Ou.png,Global,b,0,152,3,1068,980.4,455.8,FALSE,420.4,215.8
P1,20,19,Ou.png,Global,b,0,354,4,1238,970.7,404.3,FALSE,410.7,164.3
P1,20,19,Ou.png,Global,b,0,574,5,1622,935.5,490,FALSE,375.5,250
P1,20,19,Ou.png,Global,b,0,142,6,2260,973.9,1134.2,FALSE,413.9,894.2
P1,20,19,Ou.png,Global,b,0,150,7,2424,896.9,1154.6,FALSE,336.9,914.6
P1,20,19,Ou.png,Global,b,0,152,8,2592,948.6,1152,FALSE,388.6,912
P1,20,19,Ou.png,Global,b,0,254,9,2814,921.8,331.2,FALSE,361.8,91.2
P1,20,19,Ou.png,Global,b,0,302,10,3088,959.2,278.9,FALSE,399.2,38.9
P1,20,19,Ou.png,Global,b,0,150,11,3418,949.7,421.9,FALSE,389.7,181.9
P1,20,19,Ou.png,Global,b,0,150,12,3588,1018.4,467.6,FALSE,458.4,227.6
P1,21,20,Ts.png,None,n,0,702,1,10,968.7,543.3,FALSE,408.7,303.3
P1,21,20,Ts.png,None,n,0,190,2,736,925.2,448.6,FALSE,365.2,208.6
P1,21,20,Ts.png,None,n,0,218,3,1006,595.9,1120.5,FALSE,35.9,880.5
P1,21,20,Ts.png,None,n,0,130,4,1240,552.3,1116.6,FALSE,-7.7,876.6
P1,21,20,Ts.png,None,n,0,178,5,1396,657.6,1136.9,FALSE,97.6,896.9
P1,21,20,Ts.png,None,n,0,196,6,1642,980.5,489.1,FALSE,420.5,249.1
P1,21,20,Ts.png,None,n,0,862,7,1868,956.4,402,FALSE,396.4,162
P1,21,20,Ts.png,None,n,0,324,8,2762,1011.1,552,FALSE,451.1,312
P1,22,21,Lo.png,Local,b,0,18,1,10,-122.8,-346.8,FALSE,-682.8,-586.8
P1,22,21,Lo.png,Local,b,0,128,2,134,887.7,411.2,FALSE,327.7,171.2
P1,22,21,Lo.png,Local,b,0,1238,3,280,886.7,431.3,FALSE,326.7,191.3
P1,22,21,Lo.png,Local,b,0,734,4,1680,853.1,380.6,FALSE,293.1,140.6
P1,22,21,Lo.png,Local,b,0,96,5,2650,830,333.3,FALSE,270,93.3
P1,22,21,Lo.png,Local,b,0,742,6,2764,829.4,330.2,FALSE,269.4,90.2
P1,22,21,Lo.png,Local,b,0,626,7,3636,840.7,304.4,FALSE,280.7,64.4
P1,22,21,Lo.png,Local,b,0,102,8,4298,628.6,241.9,FALSE,68.6,1.9
P1,22,21,Lo.png,Local,b,0,166,9,4446,480.7,195.8,FALSE,-79.3,-44.2
P1,22,21,Lo.png,Local,b,0,130,10,4842,1050.4,313.4,FALSE,490.4,73.4
P1,22,21,Lo.png,Local,b,0,114,11,4994,1114.6,293.9,FALSE,554.6,53.9
P1,22,21,Lo.png,Local,b,0,144,12,5138,996.1,318.6,FALSE,436.1,78.6
P1,23,22,Lo.png,Local,b,0,76,1,3652,810.4,242.5,FALSE,250.4,2.5
P1,23,22,Lo.png,Local,b,0,482,2,3754,849.7,325.8,FALSE,289.7,85.8
P1,23,22,Lo.png,Local,b,0,184,3,4278,582.7,216.4,FALSE,22.7,-23.6
P1,23,22,Lo.png,Local,b,0,176,4,4504,953,300.5,FALSE,393,60.5
P1,23,22,Lo.png,Local,b,0,226,5,4704,1052.7,312.4,FALSE,492.7,72.4
P1,23,22,Lo.png,Local,b,0,128,6,4958,926.6,311.2,FALSE,366.6,71.2
P1,23,22,Lo.png,Local,b,0,40,7,5286,542.1,210.4,FALSE,-17.9,-29.6
P1,23,22,Lo.png,Local,b,0,102,8,5354,520.2,279.3,FALSE,-39.8,39.3
P1,24,23,Lo.png,Local,b,0,142,1,66,1112.1,715.4,FALSE,552.1,475.4
P1,24,23,Lo.png,Local,b,0,456,2,242,1009.4,608.8,FALSE,449.4,368.8
P1,24,23,Lo.png,Local,b,0,256,3,906,1061.1,474.8,FALSE,501.1,234.8
P1,24,23,Lo.png,Local,b,0,1030,4,1194,1019.6,593,FALSE,459.6,353
P1,24,23,Lo.png,Local,b,0,510,5,2480,1001.9,627.6,FALSE,441.9,387.6
P1,24,23,Lo.png,Local,b,0,190,6,3164,1023,555.5,FALSE,463,315.5
P1,24,23,Lo.png,Local,b,0,428,7,3374,1018.4,593.9,FALSE,458.4,353.9
P1,24,23,Lo.png,Local,b,0,454,8,3828,982.3,600.1,FALSE,422.3,360.1
P1,24,23,Lo.png,Local,b,0,136,9,4320,738.7,601.8,FALSE,178.7,361.8
P1,24,23,Lo.png,Local,b,0,200,10,4506,1180.8,625.9,FALSE,620.8,385.9
P1,24,23,Lo.png,Local,b,0,550,11,4732,1056,626.3,FALSE,496,386.3
P1,24,23,Lo.png,Local,b,0,352,12,5324,803.6,619,FALSE,243.6,379
P1,24,23,Lo.png,Local,b,0,174,13,5706,1025.7,627.1,FALSE,465.7,387.1
P1,24,23,Lo.png,Local,b,0,152,14,5912,1254.4,609.1,FALSE,694.4,369.1
P1,25,24,Lo.png,Local,b,0,316,1,10,1034.3,623.7,FALSE,474.3,383.7
P1,25,24,Lo.png,Local,b,0,188,2,392,654.1,1068.3,FALSE,94.1,828.3
P1,25,24,Lo.png,Local,b,0,78,3,882,1015.6,532.7,FALSE,455.6,292.7
P1,25,24,Lo.png,Local,b,0,714,4,980,983.7,603.2,FALSE,423.7,363.2
P1,25,24,Lo.png,Local,b,0,154,5,1716,942.2,571.3,FALSE,382.2,331.3
P1,25,24,Lo.png,Local,b,0,270,6,1900,961.3,723.8,FALSE,401.3,483.8
P1,25,24,Lo.png,Local,b,0,558,7,2212,784.9,1084.6,FALSE,224.9,844.6
P1,25,24,Lo.png,Local,b,0,286,8,2826,917,704.6,FALSE,357,464.6
P1,25,24,Lo.png,Local,b,0,264,9,3146,923.7,544.2,FALSE,363.7,304.2
P1,25,24,Lo.png,Local,b,0,314,10,3434,1021.4,606.7,FALSE,461.4,366.7
P1,26,25,Ht.png,Global,b,0,18,1,10,238.4,380.3,FALSE,-321.6,140.3
P1,26,25,Ht.png,Global,b,0,2428,2,132,1011.3,643.6,FALSE,451.3,403.6
P1,26,25,Ht.png,Global,b,0,476,3,2576,1009,611.5,FALSE,449,371.5
P1,26,25,Ht.png,Global,b,0,184,4,3070,981,616.3,FALSE,421,376.3
P1,26,25,Ht.png,Global,b,0,956,5,3270,997,622.1,FALSE,437,382.1
P1,26,25,Ht.png,Global,b,0,182,6,4258,812.9,642.8,FALSE,252.9,402.8
P1,26,25,Ht.png,Global,b,0,116,7,4488,1171.6,634.5,FALSE,611.6,394.5
P1,26,25,Ht.png,Global,b,0,48,8,4774,1044.6,1073.1,FALSE,484.6,833.1
P1,26,25,Ht.png,Global,b,0,120,9,4864,1148.8,638.8,FALSE,588.8,398.8
P1,26,25,Ht.png,Global,b,0,520,10,5004,1061.6,618,FALSE,501.6,378
P1,26,25,Ht.png,Global,b,0,176,11,5546,953.8,619.1,FALSE,393.8,379.1
P1,26,25,Ht.png,Global,b,0,284,12,5754,765.8,614.4,FALSE,205.8,374.4
P1,27,26,Ht.png,Global,b,0,218,1,10,715,602.6,FALSE,155,362.6
P1,27,26,Ht.png,Global,b,0,328,2,274,1025.6,628.2,FALSE,465.6,388.2
P1,27,26,Ht.png,Global,b,0,1820,3,736,1013.8,617.2,FALSE,453.8,377.2
P1,27,26,Ht.png,Global,b,0,488,4,2578,983.5,616.8,FALSE,423.5,376.8
P1,27,26,Ht.png,Global,b,0,22,5,3084,970.1,653.7,FALSE,410.1,413.7
P1,27,26,Ht.png,Global,b,0,880,6,3150,978.8,611.4,FALSE,418.8,371.4
P1,27,26,Ht.png,Global,b,0,70,7,4054,953.8,675.9,FALSE,393.8,435.9
P1,27,26,Ht.png,Global,b,0,224,8,4182,640.4,1066.4,FALSE,80.4,826.4
P1,27,26,Ht.png,Global,b,0,104,9,4432,573.2,1066.6,FALSE,13.2,826.6
P1,27,26,Ht.png,Global,b,0,156,10,4608,1015.3,332.6,FALSE,455.3,92.6
P1,27,26,Ht.png,Global,b,0,206,11,4794,1010,436.5,FALSE,450,196.5
P1,27,26,Ht.png,Global,b,0,502,12,5022,968.9,485.5,FALSE,408.9,245.5
P1,27,26,Ht.png,Global,b,0,134,13,5556,1050.7,596.8,FALSE,490.7,356.8
P1,27,26,Ht.png,Global,b,0,110,14,5710,1096.6,607.8,FALSE,536.6,367.8
P1,28,27,Lu.png,None,n,0,204,1,10,1106.6,618.8,FALSE,546.6,378.8
P1,28,27,Lu.png,None,n,0,2362,2,236,1010.4,614.9,FALSE,450.4,374.9
P1,28,27,Lu.png,None,n,0,34,3,2656,907.1,1096.9,FALSE,347.1,856.9
P1,28,27,Lu.png,None,n,0,724,4,2772,993.5,603.3,FALSE,433.5,363.3
P1,28,27,Lu.png,None,n,0,560,5,3514,964.5,615.9,FALSE,404.5,375.9
P1,28,27,Lu.png,None,n,0,306,6,4122,906.6,1100.9,FALSE,346.6,860.9
P1,28,27,Lu.png,None,n,0,206,7,4492,920.8,418.9,FALSE,360.8,178.9
P1,28,27,Lu.png,None,n,0,642,8,4716,926.9,465.7,FALSE,366.9,225.7
P1,28,27,Lu.png,None,n,0,200,9,5390,1046.5,586.7,FALSE,486.5,346.7
P1,28,27,Lu.png,None,n,0,88,10,5608,1090.4,602.7,FALSE,530.4,362.7
P1,29,28,Ss.png,None,n,0,212,1,10,1099.5,606.8,FALSE,539.5,366.8
P1,29,28,Ss.png,None,n,0,394,2,240,1029.8,590.8,FALSE,469.8,350.8
P1,29,28,Ss.png,None,n,0,882,3,852,1017.3,627.3,FALSE,457.3,387.3
P1,29,28,Ss.png,None,n,0,870,4,1956,1016.8,622.2,FALSE,456.8,382.2
P1,29,28,Ss.png,None,n,0,48,5,2848,1027.9,630.5,FALSE,467.9,390.5
P1,29,28,Ss.png,None,n,0,630,6,3036,1009.9,633.4,FALSE,449.9,393.4
P1,29,28,Ss.png,None,n,0,390,7,3858,1023.9,619.4,FALSE,463.9,379.4
P1,29,28,Ss.png,None,n,0,184,8,4284,789.3,612.3,FALSE,229.3,372.3
P1,29,28,Ss.png,None,n,0,608,9,4518,1126.8,606.4,FALSE,566.8,366.4
P1,29,28,Ss.png,None,n,0,140,10,5170,812.2,595.5,FALSE,252.2,355.5
P1,29,28,Ss.png,None,n,0,206,11,5334,715.8,604.9,FALSE,155.8,364.9
P1,29,28,Ss.png,None,n,0,76,12,5592,1126.6,621.1,FALSE,566.6,381.1
P1,29,28,Ss.png,None,n,0,176,13,5696,1267.1,611.7,FALSE,707.1,371.7
P1,29,28,Ss.png,None,n,0,166,14,5896,1345,588.5,FALSE,785,348.5
P1,30,29,Ss.png,None,n,0,32,1,10,1027.3,625.8,FALSE,467.3,385.8
P1,30,29,Ss.png,None,n,0,170,2,74,1270,616.5,FALSE,710,376.5
P1,30,29,Ss.png,None,n,0,1096,3,282,1004.2,589,FALSE,444.2,349
P1,30,29,Ss.png,None,n,0,340,4,1396,983.4,494.7,FALSE,423.4,254.7
P1,30,29,Ss.png,None,n,0,202,5,1800,758.2,1082.1,FALSE,198.2,842.1
P1,30,29,Ss.png,None,n,0,190,6,2066,1028.2,381.2,FALSE,468.2,141.2
P1,30,29,Ss.png,None,n,0,828,7,2282,1008.1,457.4,FALSE,448.1,217.4
P1,30,29,Ss.png,None,n,0,112,8,3178,594.8,1062,FALSE,34.8,822
P1,30,29,Ss.png,None,n,0,226,9,3310,650.8,1081.2,FALSE,90.8,841.2
P1,30,29,Ss.png,None,n,0,140,10,3594,994.7,761.5,FALSE,434.7,521.5
P1,30,29,Ss.png,None,n,0,304,11,3770,1010.1,561.9,FALSE,450.1,321.9
P1,30,29,Ss.png,None,n,0,194,12,4094,1018.6,509.9,FALSE,458.6,269.9
P1,30,29,Ss.png,None,n,0,136,13,4312,975.1,575.3,FALSE,415.1,335.3
P1,30,29,Ss.png,None,n,0,164,14,4470,1033.5,603.3,FALSE,473.5,363.3
P1,31,30,Uo.png,Local,b,0,1058,1,10,996.6,628.5,FALSE,436.6,388.5
P1,31,30,Uo.png,Local,b,0,144,2,1234,-137.6,-355.7,FALSE,-697.6,-595.7
P1,31,30,Uo.png,Local,b,0,88,3,1442,829.4,410.3,FALSE,269.4,170.3
P1,31,30,Uo.png,Local,b,0,136,4,1634,1748.2,-110.9,FALSE,1188.2,-350.9
P1,31,30,Uo.png,Local,b,0,110,5,1804,1720.3,-324.5,FALSE,1160.3,-564.5
P1,31,30,Uo.png,Local,b,0,172,6,1978,1041.2,497.5,FALSE,481.2,257.5
P1,31,30,Uo.png,Local,b,0,498,7,2180,978.8,602.9,FALSE,418.8,362.9
P1,31,30,Uo.png,Local,b,0,22,8,2700,1007,495.9,FALSE,447,255.9
P1,31,30,Uo.png,Local,b,0,148,9,2756,975.7,374.9,FALSE,415.7,134.9
P1,31,30,Uo.png,Local,b,0,216,10,2938,1017.4,522.5,FALSE,457.4,282.5
P1,31,30,Uo.png,Local,b,0,64,11,3178,957.7,572.8,FALSE,397.7,332.8
P1,31,30,Uo.png,Local,b,0,396,12,3272,983.1,706.8,FALSE,423.1,466.8
P1,31,30,Uo.png,Local,b,0,228,13,3712,887.1,1099.2,FALSE,327.1,859.2
P1,31,30,Uo.png,Local,b,0,78,14,3968,1027.3,1075,FALSE,467.3,835
P1,31,30,Uo.png,Local,b,0,180,15,4092,921.1,658.7,FALSE,361.1,418.7
P1,31,30,Uo.png,Local,b,0,608,16,4302,938.8,534.1,FALSE,378.8,294.1
P1,31,30,Uo.png,Local,b,0,312,17,4936,1031.3,595.1,FALSE,471.3,355.1
P1,32,31,Sh.png,Local,b,0,58,1,10,989.3,613,FALSE,429.3,373
P1,32,31,Sh.png,Local,b,0,450,2,86,1014.1,612.7,FALSE,454.1,372.7
P1,32,31,Sh.png,Local,b,0,80,3,812,944.1,605.8,FALSE,384.1,365.8
P1,32,31,Sh.png,Local,b,0,856,4,912,981.9,601.7,FALSE,421.9,361.7
P1,32,31,Sh.png,Local,b,0,682,5,1790,969.5,524.3,FALSE,409.5,284.3
P1,32,31,Sh.png,Local,b,0,202,6,2490,1000.5,504.3,FALSE,440.5,264.3
P1,32,31,Sh.png,Local,b,0,260,7,2716,988.7,588.7,FALSE,428.7,348.7
P1,32,31,Sh.png,Local,b,0,282,8,2996,987.6,521.6,FALSE,427.6,281.6
P1,32,31,Sh.png,Local,b,0,478,9,3296,994.2,471.6,FALSE,434.2,231.6
P1,32,31,Sh.png,Local,b,0,168,10,3828,815,1105.4,FALSE,255,865.4
P1,32,31,Sh.png,Local,b,0,180,11,4018,736.5,1096.7,FALSE,176.5,856.7
P1,32,31,Sh.png,Local,b,0,242,12,4258,1071.3,586.8,FALSE,511.3,346.8
P1,32,31,Sh.png,Local,b,0,174,13,4526,971.2,602.6,FALSE,411.2,362.6
P1,32,31,Sh.png,Local,b,0,114,14,4724,1065.4,603.7,FALSE,505.4,363.7
P1,33,32,Ll.png,None,n,0,198,1,10,953.1,624.9,FALSE,393.1,384.9
P1,33,32,Ll.png,None,n,0,240,2,230,1021.3,651.3,FALSE,461.3,411.3
P1,33,32,Ll.png,None,n,0,1010,3,718,1008.4,591.6,FALSE,448.4,351.6
P1,33,32,Ll.png,None,n,0,156,4,1744,958.9,568.5,FALSE,398.9,328.5
P1,33,32,Ll.png,None,n,0,270,5,1930,975.4,699.8,FALSE,415.4,459.8
P1,33,32,Ll.png,None,n,0,242,6,2252,877.8,1105.1,FALSE,317.8,865.1
P1,33,32,Ll.png,None,n,0,142,7,2544,1012.5,660,FALSE,452.5,420
P1,33,32,Ll.png,None,n,0,760,8,2720,954.8,513.8,FALSE,394.8,273.8
P1,33,32,Ll.png,None,n,0,308,9,3508,1056.1,611.5,FALSE,496.1,371.5
P1,34,33,Uu.png,None,n,0,128,1,300,989,592.2,FALSE,429,352.2
P1,34,33,Uu.png,None,n,0,860,2,444,1021.8,596.8,FALSE,461.8,356.8
P1,34,33,Uu.png,None,n,0,222,3,1370,1798.5,209.7,FALSE,1238.5,-30.3
P1,34,33,Uu.png,None,n,0,836,4,1652,989,581.4,FALSE,429,341.4
P1,34,33,Uu.png,None,n,0,180,5,2520,960.4,713.3,FALSE,400.4,473.3
P1,34,33,Uu.png,None,n,0,120,6,2716,1005,708.3,FALSE,445,468.3
P1,34,33,Uu.png,None,n,0,614,7,2870,979.4,527.6,FALSE,419.4,287.6
P1,34,33,Uu.png,None,n,0,184,8,3532,805.9,1098.3,FALSE,245.9,858.3
P1,34,33,Uu.png,None,n,0,572,9,3738,704.3,1085.7,FALSE,144.3,845.7
P1,34,33,Uu.png,None,n,0,288,10,4374,1059.3,601.1,FALSE,499.3,361.1
P1,34,33,Uu.png,None,n,0,318,11,4684,983.4,610.3,FALSE,423.4,370.3
P1,35,34,Lo.png,Local,b,0,290,1,82,1048.6,646.5,FALSE,488.6,406.5
P1,35,34,Lo.png,Local,b,0,174,2,422,874.5,1081,FALSE,314.5,841
P1,35,34,Lo.png,Local,b,0,126,3,650,997.8,741.6,FALSE,437.8,501.6
P1,35,34,Lo.png,Local,b,0,508,4,988,1012.8,595.8,FALSE,452.8,355.8
P1,35,34,Lo.png,Local,b,0,454,5,1754,1010.7,611.8,FALSE,450.7,371.8
P1,35,34,Lo.png,Local,b,0,224,6,2224,977.6,626.2,FALSE,417.6,386.2
P1,35,34,Lo.png,Local,b,0,210,7,2468,1024.3,641.8,FALSE,464.3,401.8
P1,35,34,Lo.png,Local,b,0,134,8,2952,1066.4,529.9,FALSE,506.4,289.9
P1,35,34,Lo.png,Local,b,0,318,9,3114,1010,618.5,FALSE,450,378.5
P1,35,34,Lo.png,Local,b,0,114,10,3510,1773.7,-81.5,FALSE,1213.7,-321.5
P1,35,34,Lo.png,Local,b,0,238,11,3686,1000.1,587.1,FALSE,440.1,347.1
P1,35,34,Lo.png,Local,b,0,188,12,4120,1022.9,611.2,FALSE,462.9,371.2
P1,35,34,Lo.png,Local,b,0,180,13,4330,953.7,574.1,FALSE,393.7,334.1
P1,35,34,Lo.png,Local,b,0,158,14,4536,983.9,641.8,FALSE,423.9,401.8
P1,35,34,Lo.png,Local,b,0,352,15,4712,951.7,578.7,FALSE,391.7,338.7
P1,35,34,Lo.png,Local,b,0,298,16,5080,955.2,541.2,FALSE,395.2,301.2
P1,35,34,Lo.png,Local,b,0,496,17,5436,845.8,1089.1,FALSE,285.8,849.1
P1,35,34,Lo.png,Local,b,0,106,18,5986,948.5,846.4,FALSE,388.5,606.4
P1,35,34,Lo.png,Local,b,0,266,19,6126,952.5,638.3,FALSE,392.5,398.3
P1,35,34,Lo.png,Local,b,0,284,20,6416,1019.2,643.3,FALSE,459.2,403.3
P1,36,35,Ll.png,None,n,0,894,1,10,1016.4,613.9,FALSE,456.4,373.9
P1,36,35,Ll.png,None,n,0,22,2,1062,936.5,1088.1,FALSE,376.5,848.1
P1,36,35,Ll.png,None,n,0,1262,3,1142,1014,619.4,FALSE,454,379.4
P1,36,35,Ll.png,None,n,0,178,4,2618,1003.3,579.7,FALSE,443.3,339.7
P1,36,35,Ll.png,None,n,0,524,5,2816,1008.5,582.3,FALSE,448.5,342.3
P1,36,35,Ll.png,None,n,0,180,6,3598,981.3,558.8,FALSE,421.3,318.8
P1,36,35,Ll.png,None,n,0,444,7,3800,1005.1,588.5,FALSE,445.1,348.5
P1,36,35,Ll.png,None,n,0,90,8,4276,818,602.8,FALSE,258,362.8
P1,36,35,Ll.png,None,n,0,250,9,4392,704.1,586.8,FALSE,144.1,346.8
P1,36,35,Ll.png,None,n,0,86,10,4692,1090.6,584.5,FALSE,530.6,344.5
P1,36,35,Ll.png,None,n,0,288,11,4808,1270.9,590.2,FALSE,710.9,350.2
P1,36,35,Ll.png,None,n,0,88,12,5118,1210.8,615,FALSE,650.8,375
P1,36,35,Ll.png,None,n,0,324,13,5402,1159.7,605.4,FALSE,599.7,365.4
P1,36,35,Ll.png,None,n,0,44,14,6002,861.4,1070.7,FALSE,301.4,830.7
P1,37,36,Ll.png,None,n,0,212,1,10,878.6,648.9,FALSE,318.6,408.9
P1,37,36,Ll.png,None,n,0,676,2,252,1004.8,623,FALSE,444.8,383
P1,37,36,Ll.png,None,n,0,670,3,1146,1016,594.9,FALSE,456,354.9
P1,37,36,Ll.png,None,n,0,448,4,1834,1010.1,604.8,FALSE,450.1,364.8
P1,37,36,Ll.png,None,n,0,112,5,2362,1702.5,178.5,FALSE,1142.5,-61.5
P1,37,36,Ll.png,None,n,0,160,6,2534,1050.7,578.2,FALSE,490.7,338.2
P1,37,36,Ll.png,None,n,0,270,7,2718,1005.8,610.3,FALSE,445.8,370.3
P1,37,36,Ll.png,None,n,0,572,8,3186,999.1,613.8,FALSE,439.1,373.8
P1,37,36,Ll.png,None,n,0,258,9,4000,1012.4,617.6,FALSE,452.4,377.6
P1,37,36,Ll.png,None,n,0,204,10,4292,780.9,616.2,FALSE,220.9,376.2
P1,37,36,Ll.png,None,n,0,88,11,4518,857.2,628.9,FALSE,297.2,388.9
P1,37,36,Ll.png,None,n,0,22,12,4844,894.3,1066.6,FALSE,334.3,826.6
P1,37,36,Ll.png,None,n,0,84,13,4920,961.9,671.4,FALSE,401.9,431.4
P1,37,36,Ll.png,None,n,0,84,14,5280,965.3,604.5,FALSE,405.3,364.5
P1,37,36,Ll.png,None,n,0,146,15,5658,907.4,579.9,FALSE,347.4,339.9
P1,37,36,Ll.png,None,n,0,218,16,5846,1171.3,630.8,FALSE,611.3,390.8
P1,38,37,Ll.png,None,n,0,174,1,10,944.3,504.7,FALSE,384.3,264.7
P1,38,37,Ll.png,None,n,0,456,2,214,993.8,623.1,FALSE,433.8,383.1
P1,38,37,Ll.png,None,n,0,390,3,930,998.8,639.5,FALSE,438.8,399.5
P1,38,37,Ll.png,None,n,0,668,4,1572,1010.9,605.5,FALSE,450.9,365.5
P1,38,37,Ll.png,None,n,0,212,5,2444,1041.6,618.4,FALSE,481.6,378.4
P1,38,37,Ll.png,None,n,0,154,6,2866,1007.4,563.9,FALSE,447.4,323.9
P1,38,37,Ll.png,None,n,0,266,7,3038,1014.2,591.3,FALSE,454.2,351.3
P1,38,37,Ll.png,None,n,0,194,8,3604,994.2,522.1,FALSE,434.2,282.1
P1,38,37,Ll.png,None,n,0,186,9,4158,1050.8,646.5,FALSE,490.8,406.5
P1,38,37,Ll.png,None,n,0,218,10,4384,781.7,635.7,FALSE,221.7,395.7
P1,38,37,Ll.png,None,n,0,188,11,4630,906.5,648.4,FALSE,346.5,408.4
P1,38,37,Ll.png,None,n,0,82,12,4856,1133.1,642.2,FALSE,573.1,402.2
P1,38,37,Ll.png,None,n,0,326,13,4966,1259.5,634.1,FALSE,699.5,394.1
P1,38,37,Ll.png,None,n,0,146,14,5312,1197.8,633.7,FALSE,637.8,393.7
P1,38,37,Ll.png,None,n,0,186,15,5688,916.6,636.3,FALSE,356.6,396.3
P1,38,37,Ll.png,None,n,0,148,16,5896,832.7,615.8,FALSE,272.7,375.8
P1,39,38,Ll.png,None,n,0,230,1,10,1296.5,622.8,FALSE,736.5,382.8
P1,39,38,Ll.png,None,n,0,354,2,284,1008.5,650.4,FALSE,448.5,410.4
